time,acceleration x,acceleration y,acceleration z,gyroscope x,gyroscope y,gyroscope z
0.0129,3.4333,-2.6217,-8.8370,0.0019,-0.0229,0.0229
0.0261,3.0789,-2.8874,-8.8777,-0.0090,-0.0249,2.9008
0.0392,2.9042,-2.8180,-8.7460,-0.0066,-0.0072,2.8626
0.0526,2.9760,-2.8228,-8.7269,-0.0125,-0.0002,4.4580
0.0668,2.9999,-2.5738,-8.7317,-0.0027,0.0126,3.2366
0.0845,2.8299,-2.5786,-8.9016,0.0256,0.0098,-10.0000
0.1018,2.8730,-2.5067,-8.8107,0.0509,0.0085,-15.5649
0.1193,3.7421,-3.0119,-8.0900,0.0255,-0.0422,-8.4656
0.1369,3.6631,-2.9521,-8.6335,0.0005,0.0286,3.3511
0.1544,3.3136,-2.7701,-8.8585,-0.0126,-0.0103,3.9924
0.1719,2.7533,-2.8323,-8.7652,-0.0037,-0.0143,-5.7023
0.1902,3.0430,-2.4756,-8.8514,0.0094,-0.0068,-8.4809
0.2080,3.2585,-2.6624,-8.6167,0.0211,-0.0161,-7.9924
0.2268,3.2944,-2.7653,-8.5066,0.0161,-0.0148,-5.5954
0.2446,3.6224,-2.6432,-8.6167,-0.0023,-0.0037,8.8626
0.2630,3.1220,-2.7701,-8.7819,-0.0105,0.0016,10.9466
0.2811,2.6504,-2.8706,-8.8178,0.0088,0.0293,-0.0763
0.2997,3.0718,-2.7222,-8.9328,0.0234,0.0281,-8.8931
0.3176,3.6368,-2.7629,-8.8681,0.0274,0.0080,-8.8550
0.3390,3.6081,-2.8778,-8.5377,0.0136,-0.0291,-0.8321
0.3578,3.4141,-2.9257,-8.4827,-0.0106,0.0057,4.0687
0.3759,3.1364,-2.6791,-8.8083,-0.0184,0.0373,11.5878
0.3948,3.2106,-2.7629,-8.8681,0.0006,0.0309,2.8015
0.4123,3.3064,-2.7988,-8.7125,-0.0064,0.0115,-0.5115
0.4307,3.3950,-2.6863,-8.7005,-0.0074,-0.0114,-1.9389
0.4486,3.3902,-2.7342,-8.6526,-0.0083,-0.0115,3.3969
0.4670,2.9497,-2.7438,-8.5832,-0.0136,0.0145,0.5420
0.4848,3.0957,-2.8252,-8.8226,0.0072,0.0164,-1.1756
0.5033,3.4213,-2.9090,-8.8753,0.0156,-0.0168,-7.1374
0.5223,3.3016,-2.6312,-8.5976,0.0111,-0.0193,-5.7252
0.5411,3.2274,-2.9305,-8.4372,0.0050,-0.0189,-7.7099
0.5600,3.6440,-2.8419,-8.6646,-0.0099,-0.0007,2.7176
0.5782,3.6033,-2.6025,-8.7532,-0.0227,-0.0201,12.3664
0.5976,2.9640,-2.8563,-8.7987,-0.0094,-0.0215,3.3206
0.6160,3.1795,-2.8371,-8.6383,0.0029,-0.0214,-3.9389
0.6348,3.1029,-2.5235,-8.5952,0.0143,-0.0187,-6.0382
0.6533,3.2489,-2.7174,-8.6048,0.0107,-0.0114,-2.3893
0.6723,3.5386,-2.7821,-8.5688,-0.0028,0.0023,5.3435
0.6906,3.2920,-2.7366,-8.8657,-0.0068,-0.0149,7.3893
0.7090,3.3279,-2.9497,-8.5928,-0.0034,-0.0135,0.1832
0.7292,3.1987,-2.7318,-8.7604,0.0068,0.0079,-4.7710
0.7470,3.1651,-2.8252,-8.5928,0.0129,0.0097,-11.0382
0.7656,3.6248,-2.5738,-8.7843,0.0076,-0.0108,-0.6107
0.7835,3.2274,-2.6121,-8.5712,0.0051,-0.0285,3.0992
0.8022,3.2657,-3.1723,-8.4731,0.0020,0.0257,-0.2824
0.8203,3.5817,-2.5307,-8.7700,-0.0075,0.0101,8.5420
0.8386,3.2705,-2.8012,-8.5928,0.0068,0.0051,-1.6641
0.8564,3.3160,-3.1388,-8.4851,0.0076,0.0246,-5.3740
0.8750,3.7733,-2.4852,-8.7652,-0.0098,-0.0115,3.9618
0.8932,3.2777,-2.7821,-8.4898,-0.0133,-0.0293,0.4656
0.9117,2.9113,-2.8467,-8.6048,-0.0122,0.0255,-0.8321
0.9304,3.3998,-2.5355,-8.8490,-0.0116,-0.0022,7.5191
0.9490,3.1675,-2.9090,-8.8705,0.0041,-0.0121,-3.9160
0.9672,3.1987,-2.9497,-8.7843,0.0181,0.0308,-13.6565
0.9851,3.8331,-2.3128,-8.5401,0.0020,-0.0200,-0.9466
1.0034,3.7804,-2.8826,-8.5305,-0.0084,-0.0582,3.2443
1.0211,3.2777,-2.6815,-8.7173,-0.0154,-0.0160,6.1985
1.0398,3.1125,-2.8323,-8.8155,-0.0080,-0.0038,-1.8015
1.0575,3.2801,-2.6097,-8.7795,0.0042,0.0031,-2.0840
1.0756,3.2178,-2.6863,-8.7005,0.0125,0.0045,-5.0153
1.0940,3.4357,-2.7102,-8.5497,0.0121,-0.0164,-2.1679
1.1125,3.7302,-2.8371,-8.3222,-0.0015,-0.0354,1.0000
1.1308,3.5889,-2.7318,-8.6886,-0.0121,-0.0221,7.1450
1.1493,3.2944,-2.6001,-8.6933,-0.0152,-0.0314,6.5725
1.1676,3.0071,-2.7892,-8.7269,0.0024,-0.0097,-2.5420
1.1857,3.1316,-2.7318,-8.7101,0.0127,-0.0170,-6.5267
1.2042,3.4309,-2.7749,-8.7293,0.0078,-0.0080,-4.6870
1.2224,3.7517,-2.6288,-8.5904,-0.0054,-0.0210,3.8168
1.2418,3.4237,-2.6408,-8.8011,-0.0059,-0.0056,4.4962
1.2628,3.3447,-2.5019,-8.7819,-0.0016,-0.0369,6.1756
1.2806,2.9449,-3.1196,-8.4779,0.0105,-0.0264,-10.3588
1.3025,3.5267,-2.8467,-8.4467,0.0041,-0.0022,-2.8015
1.3254,3.0981,-2.6528,-8.5281,0.0086,-0.0037,-3.9084
1.3502,3.3830,-2.7581,-8.6886,0.0115,0.0115,1.5878
1.3725,3.6512,-2.6983,-8.9160,0.0060,-0.0078,4.4122
1.3973,2.7701,-2.8706,-8.4443,0.0195,0.0188,-8.5038
1.4208,3.9672,-2.9688,-8.6503,-0.0055,-0.0122,-3.7405
1.4489,3.4237,-2.7078,-8.6574,-0.0002,-0.0284,0.7939
1.4759,3.3615,-2.6695,-8.7173,-0.0011,-0.0062,1.5725
1.5099,3.6200,-2.4828,-8.6694,0.0059,-0.0154,0.7481
1.5348,3.1915,-2.7701,-8.6574,0.0055,-0.0079,-1.8626
1.5570,3.2346,-2.7126,-8.7460,0.0104,-0.0032,-0.7939
1.5821,3.2465,-2.9544,-8.5090,0.0072,0.0095,-2.8931
1.6065,3.6823,-2.5259,-8.6910,-0.0058,-0.0045,5.1145
1.6313,3.1412,-3.1101,-8.4803,-0.0014,0.0223,-4.9160
1.6555,3.6296,-2.5570,-8.5928,-0.0020,-0.0021,-0.7557
1.6804,3.6871,-2.8754,-8.5736,0.0025,0.0080,-2.1679
1.7058,3.8738,-2.5977,-8.8657,-0.0010,-0.0163,5.3588
1.7290,3.2825,-2.8922,-8.6718,0.0065,-0.0202,-8.5649
1.7550,3.5338,-2.6815,-8.5904,0.0027,0.0193,0.7252
1.7776,3.0837,-2.5786,-8.6024,0.0038,-0.0192,-4.6107
1.8026,3.7062,-2.7342,-8.6383,-0.0056,-0.0222,4.5878
1.8268,3.1627,-2.6480,-8.6119,-0.0054,-0.0296,-1.8244
1.8510,3.0670,-2.4972,-8.5976,0.0062,0.0174,-2.0992
1.8763,3.5506,-2.3224,-8.5928,0.0140,0.0084,2.7863
1.9006,3.4093,-2.8395,-8.4420,0.0052,-0.0146,2.8244
1.9256,3.6727,-3.0095,-8.6287,-0.0056,-0.0053,0.0458
1.9482,3.6200,-2.7222,-8.7700,-0.0099,-0.0175,0.5649
1.9730,3.6176,-2.5570,-8.7317,-0.0019,-0.0322,3.0763
1.9973,3.2705,-2.6911,-8.5138,0.0022,-0.0073,3.8550
2.0214,3.4429,-2.6576,-8.6718,0.0055,0.0018,4.6107
2.0450,3.6081,-2.8467,-8.8202,0.0031,-0.0159,0.1145
2.0707,3.2705,-3.0215,-8.4587,0.0008,-0.0037,-5.5954
2.0957,3.3112,-2.6264,-8.6526,0.0068,0.0072,-3.4809
2.1216,3.6416,-2.6456,-8.6455,0.0022,0.0069,1.0992
2.1470,3.8810,-2.7509,-8.5569,-0.0044,-0.0246,4.7252
2.1703,3.2801,-2.7461,-8.8107,-0.0014,-0.0210,-0.6489
2.1955,3.3758,-2.7509,-8.8562,0.0052,0.0047,-2.1450
2.2183,3.7278,-2.6384,-8.5688,0.0141,-0.0041,2.5496
2.2446,3.6631,-2.7485,-8.5784,-0.0125,-0.0400,6.6031
2.2716,3.0358,-2.7964,-8.5880,-0.0051,-0.0105,-4.9847
2.2996,3.4596,-2.6911,-8.6455,0.0092,0.0125,-7.6107
2.3256,3.9480,-2.6456,-8.4874,0.0003,-0.0588,2.0229
2.3518,3.7445,-2.7031,-8.5545,-0.0164,-0.0175,9.1679
2.3771,3.1580,-2.6839,-8.6383,0.0031,0.0202,-1.0076
2.4055,3.2872,-2.9760,-8.6095,0.0298,-0.0055,-9.6412
2.4329,3.8810,-2.7701,-8.4970,-0.0062,-0.0305,1.1908
2.4593,3.7350,-2.6647,-8.6526,-0.0101,0.0108,4.1679
2.4854,3.0454,-2.6767,-8.4539,0.0078,0.0224,-7.5573
2.5148,3.4644,-2.5786,-8.7436,0.0273,-0.0176,-7.1603
2.5409,3.3734,-2.8228,-8.2432,0.0097,0.0124,-0.2748
2.5662,3.7804,-2.6408,-8.5353,-0.0136,0.0188,8.6794
2.5887,3.5003,-2.9999,-8.6215,-0.0001,-0.0242,-0.8550
2.6137,3.4931,-2.7509,-8.7771,-0.0051,-0.0099,-4.1069
2.6371,3.3830,-2.5426,-8.7340,0.0044,-0.0223,-10.7710
2.6618,3.8618,-2.7749,-8.5521,-0.0061,0.0057,0.2214
2.6853,3.6990,-2.9784,-8.8011,-0.0012,0.0252,3.6947
2.7129,3.1508,-2.7126,-8.6790,0.0007,0.0442,-4.2366
2.7389,3.3854,-2.7222,-8.4348,0.0065,0.0158,-8.3130
2.7654,3.7062,-2.6863,-8.4420,-0.0106,0.0208,-7.0611
2.7897,3.9552,-2.6408,-8.4659,-0.0104,0.0006,-0.8931
2.8166,3.6057,-2.5211,-8.8873,-0.0042,0.0044,-1.3511
2.8455,3.4884,-2.3152,-8.5234,0.0243,0.0120,-10.5344
2.8722,3.6416,-2.5019,-8.6479,0.0202,0.0429,-11.6031
2.9004,4.2282,-2.3607,-8.6024,0.0189,-0.0136,-3.7405
2.9281,3.1675,-2.5163,-8.8298,0.0443,0.0094,-8.8550
2.9553,3.3471,-2.5498,-8.8777,0.0640,0.0170,-14.1756
2.9819,3.6009,-2.9185,-8.2911,0.0538,0.0597,-16.5802
3.0084,4.1300,-3.2298,-8.4898,0.0096,0.0590,-10.3511
3.0348,4.0821,-3.1603,-8.7412,-0.0058,0.0276,-18.4656
3.0642,4.0917,-2.4684,-8.6598,-0.0024,-0.0378,-17.3969
3.0925,4.5179,-2.8132,-7.9487,-0.0597,-0.0702,-11.5115
3.1195,4.2928,-2.4828,-8.3486,-0.1040,-0.0011,0.6565
3.1458,3.2729,-2.4397,-8.6503,-0.0504,-0.0445,-13.8626
3.1716,3.5386,-1.7526,-8.5569,0.0102,0.0246,-19.6336
3.1977,4.5179,-1.9824,-8.4228,0.0312,0.0452,-6.7099
3.2252,4.2042,-1.8962,-8.5018,0.0587,0.0542,0.9847
3.2526,3.6512,-2.0016,-8.6886,0.0943,0.0941,-4.9313
3.2792,4.0318,-2.4924,-8.6598,0.1142,0.0582,-16.0992
3.3062,4.4772,-2.6767,-8.5497,0.0854,0.0287,-9.7328
3.3356,3.7661,-2.5738,-8.3821,0.0676,0.0921,-0.3588
3.3618,3.2346,-2.4373,-8.4443,0.0718,0.1734,-5.5420
3.3877,3.3878,-2.2769,-8.1403,0.1089,0.2042,-22.0000
3.4138,3.7421,-2.3583,-8.2001,0.1426,0.2619,-31.5725
3.4385,4.6902,-2.3990,-8.1068,0.1905,0.2856,-25.1603
3.4662,5.7126,-2.7198,-7.5753,0.1461,0.2316,-13.1069
3.4897,6.2321,-2.8706,-7.6806,0.0857,0.2084,0.5267
3.5157,5.8251,-2.9664,-8.2145,0.0888,0.1028,-14.9237
3.5398,4.2114,-3.0957,-8.0349,0.1019,0.1611,-14.4885
3.5662,4.4412,-3.4213,-7.7069,0.0801,0.2418,-16.6641
3.5908,4.9799,-3.1316,-7.6303,0.0397,0.2833,-9.1832
3.6172,5.6551,-3.1101,-7.4819,-0.1010,0.3713,10.2366
3.6444,5.9352,-2.9521,-7.5633,-0.0974,0.3176,-2.0763
3.6715,5.4061,-2.9640,-7.5202,-0.0582,0.2796,-13.5115
3.6997,5.7413,-2.5355,-6.9384,-0.1192,0.2881,-19.5267
3.7293,6.3590,-2.4301,-6.9863,-0.1636,0.3339,-3.7863
3.7587,6.2297,-2.8778,-7.0725,-0.0928,0.3034,-22.1908
3.7861,6.1842,-2.4517,-6.8977,-0.0670,0.2866,-36.0458
3.8152,6.5434,-2.2098,-6.2441,-0.1582,0.3296,-33.7328
3.8450,7.3143,-1.7454,-6.3015,-0.1664,0.3039,-9.3053
3.8742,7.0054,-1.4796,-6.6631,-0.1747,0.3251,-6.0763
3.9186,6.2369,-1.2450,-6.2728,-0.0761,0.4711,-16.1832
3.9442,7.4196,-0.8332,-6.1770,-0.0446,0.4547,-13.0382
3.9675,7.8410,-1.0702,-5.5905,-0.0121,0.4675,-2.3893
3.9917,8.1475,-1.5395,-5.5569,-0.0376,0.5931,-20.2137
4.0136,8.5952,-1.0918,-5.3295,0.0348,0.4265,-22.6031
4.0386,8.6215,-0.7709,-5.7365,0.1329,0.3326,-23.8702
4.0616,8.2887,-1.7813,-4.6902,0.0163,0.3205,-12.1756
4.0868,8.5497,-1.5586,-4.5442,-0.1025,0.3473,9.3053
4.1106,8.7412,-1.5993,-4.7285,-0.1542,0.4152,13.0534
4.1352,8.9759,-1.8866,-4.6017,-0.0714,0.3417,-20.5725
4.1597,8.5712,-1.3647,-4.6040,-0.0366,0.3275,-10.6870
4.1840,8.5473,-1.2929,-4.3814,-0.0664,0.3512,-16.5954
4.2070,9.5624,-0.9601,-4.0869,-0.1181,0.2851,11.4198
4.2318,9.6271,-1.1899,-4.0893,-0.1802,0.2825,21.8092
4.2556,9.3206,-0.9409,-4.4341,-0.1485,0.2625,2.3893
4.2784,8.2073,-0.8452,-4.4819,-0.0431,0.3007,-28.6183
4.3029,7.4005,-0.3783,-4.5107,0.0859,0.4192,-29.2366
4.3256,9.0261,-1.5610,-2.4900,-0.0319,0.4073,-28.9008
4.3617,9.5888,-1.0702,-2.5331,-0.0990,0.3944,3.0916
4.3891,10.4722,-0.8859,-2.8108,-0.1531,0.3148,8.0687
4.4159,8.7508,-1.1013,-2.8419,-0.0218,0.3028,-24.4885
4.4428,8.6503,-0.0670,-2.5067,0.1325,0.4572,-47.6718
4.4686,10.5177,-0.2203,-1.6903,0.0270,0.4246,-19.4427
4.4959,11.2312,-0.2705,-1.4078,-0.0097,0.2617,-0.4580
4.5201,10.3884,-0.6752,-1.6448,-0.0147,0.1660,-14.0992
4.5453,10.7691,-0.2466,-1.5131,0.0255,0.1240,-23.0992
4.5689,10.7619,0.3879,-1.2354,0.0304,0.1859,-8.2977
4.5935,9.6271,0.2394,-1.4581,0.0122,0.2629,-11.0382
4.6173,9.5672,0.3783,-1.8268,0.0586,0.2076,-23.0076
4.6423,9.1937,-0.0646,-1.4772,0.0897,0.2249,-22.5191
4.6659,9.5146,0.1484,-1.2641,0.0647,0.2768,-9.9160
4.6906,9.3422,-0.5291,-0.7685,0.0140,0.3623,-2.7634
4.7131,10.9630,0.0024,0.2370,-0.1371,0.3721,11.5954
4.7382,9.2105,-0.5842,-0.3256,-0.1530,0.4217,8.9618
4.7617,10.2161,-0.1413,-0.2370,-0.1517,0.4187,-2.3969
4.7867,10.4196,-0.0287,0.1604,-0.1822,0.4176,-10.9618
4.8122,11.9040,0.0000,0.8835,-0.0577,0.1815,7.0840
4.8365,10.2711,0.4956,0.5076,-0.1458,0.1698,11.2443
4.8614,9.6031,0.4214,0.4501,-0.0653,0.2098,-12.8015
4.8842,10.1131,-0.0982,0.3974,-0.0181,0.1858,-18.5649
4.9087,10.9511,0.2658,1.0127,-0.0421,0.1342,-11.0458
4.9325,10.8553,0.4046,0.7709,-0.0561,0.0873,-1.0992
4.9574,9.8330,0.5171,0.5171,-0.0082,0.1214,-3.4046
4.9823,9.7564,0.6464,0.3639,0.0054,0.1426,-0.6107
5.0079,10.0102,0.0910,0.9098,-0.0586,0.1824,3.6183
5.0327,9.9647,0.3448,0.6321,0.0044,0.1057,-18.3817
5.0563,10.5105,0.3950,0.9936,0.0356,0.0890,-7.1221
5.0812,10.7452,0.2993,1.2019,0.0024,0.0191,6.3740
5.1041,9.5337,0.1197,1.0606,0.0132,0.0879,2.0076
5.1284,9.4260,0.0670,1.0127,0.0088,0.1301,-4.6107
5.1519,10.5201,0.1317,1.4653,-0.0039,0.0764,-3.4351
5.1769,10.9367,0.2945,1.4341,-0.0107,0.0156,2.6489
5.2007,10.2376,0.4980,1.1325,0.0108,-0.0019,3.3130
5.2257,9.6415,0.3926,1.1660,0.0280,0.0152,2.9695
5.2508,10.4148,0.0024,1.4772,0.0078,0.0018,5.9542
5.2761,10.7164,0.1604,1.2282,0.0142,-0.0405,7.3206
5.3007,10.3214,0.2753,1.1588,0.0356,-0.0945,6.2824
5.3244,9.8976,0.2418,1.2306,0.0610,-0.0970,3.4885
5.3487,10.2208,-0.2059,1.4509,0.0682,-0.1339,-6.9847
5.3751,10.8793,-0.7685,1.6328,-0.0008,-0.1954,5.3053
5.4003,11.0325,-0.3591,1.2665,-0.1017,-0.2619,24.1145
5.4239,9.6534,0.3136,0.3998,-0.1519,-0.2273,28.7786
5.4492,9.6007,-0.2298,0.3879,-0.0394,-0.3921,-55.0000
5.4725,9.6175,1.0295,0.4621,0.0741,-0.3821,-32.6412
5.4975,10.1227,0.3807,0.6680,0.0023,-0.2730,-1.9084
5.5189,10.5441,-0.3160,0.4788,-0.0491,-0.2295,10.0840
5.5417,10.5848,0.1077,0.1508,-0.0551,-0.2289,12.2901
5.5735,9.9671,0.2107,-0.4741,-0.0006,-0.3550,3.6031
5.5999,9.7947,0.1006,-0.0192,0.0061,-0.2985,9.1298
5.6256,10.1562,-0.4286,0.3926,-0.0360,-0.3104,5.7481
5.6512,10.7691,-0.3424,-0.4118,-0.0880,-0.3038,17.8397
5.6780,10.4483,0.5435,-0.9194,-0.0723,-0.4230,14.3893
5.7025,8.9543,0.5650,-1.4796,0.0146,-0.3386,3.2901
5.7294,9.4236,0.3879,-1.1420,0.0918,-0.1951,-5.4122
5.7566,10.8218,-0.6823,-1.0223,0.0182,-0.1316,15.1832
5.7812,10.7955,0.0838,-1.5945,-0.0285,-0.2883,18.3969
5.8077,10.6326,0.1030,-1.7765,0.0009,-0.4281,22.5573
5.8339,10.2615,0.2490,-2.0901,0.0403,-0.4503,22.9008
5.8603,9.3422,-0.3280,-1.9968,0.0627,-0.3875,13.9695
5.8848,9.3063,-1.3168,-1.7310,0.0024,-0.3512,8.1679
5.9108,10.1299,-1.1229,-2.2769,-0.0538,-0.3823,19.2824
5.9374,9.7707,-0.8739,-2.4014,-0.0562,-0.3820,15.5573
5.9653,9.1435,-0.2059,-2.9209,0.0089,-0.3299,1.3969
5.9941,9.5984,-0.0958,-3.3160,0.0732,-0.3049,1.1374
6.0213,10.0461,-0.6488,-3.1651,0.0822,-0.3532,3.7786
6.0492,9.1794,-0.8021,-2.8706,0.1100,-0.3849,-7.6489
6.0766,9.6031,-0.5794,-3.5003,0.1062,-0.3011,11.8092
6.1012,9.4691,-0.5291,-3.6919,0.0679,-0.2592,23.8092
6.1279,8.5976,-0.9218,-3.7302,0.0669,-0.1858,15.3893
6.1558,8.1211,-1.4533,-3.9073,0.0695,-0.2103,-1.5878
6.1830,9.1099,-1.7214,-3.6033,0.0161,-0.1685,-1.0992
6.2088,9.3996,-1.1540,-4.2832,-0.0313,-0.1945,11.0763
6.2358,9.1506,-0.8787,-4.8315,-0.0428,-0.1864,30.4046
6.2637,8.7819,-0.5890,-4.6352,0.0175,-0.1797,22.1908
6.2878,8.8202,-1.6520,-4.0199,0.0198,-0.1984,11.7252
6.3148,9.1913,-2.2745,-0.7829,-0.1126,-0.2998,13.6107
6.3421,8.5880,-2.1428,-3.0239,-0.2206,-0.2389,-47.5420
6.3699,6.1363,1.8675,-7.7979,0.0628,-0.2921,-12.5878
6.3942,9.0812,-0.0599,-4.8435,0.0891,-0.3812,25.7939
6.4213,8.4611,-1.5538,-4.7740,0.0424,-0.2926,25.2366
6.4577,7.7812,-1.5754,-5.4947,0.0274,-0.2570,16.1756
6.4849,6.5601,-1.1444,-5.7102,0.0751,-0.1410,-4.2366
6.5099,8.1642,-1.4437,-5.5617,0.2012,-0.2235,-14.1298
6.5350,9.9599,-1.3527,-5.8897,0.1105,-0.3309,18.5954
6.5568,8.4084,-3.0047,-5.3678,0.0176,-0.3646,29.8244
6.5824,7.4771,-2.5642,-5.9616,-0.0298,-0.3287,29.0992
6.6050,6.5386,-1.9728,-6.4476,0.0442,-0.2465,3.5420
6.6299,7.0701,-1.5060,-6.4093,0.0837,-0.2703,2.7481
6.6530,8.3294,1.5155,-6.6870,0.1319,-0.2851,16.5649
6.6757,6.5074,-2.8347,-6.8785,0.0741,-0.2132,26.6107
6.7007,6.6822,-2.4493,-6.4500,0.0354,-0.2506,2.7939
6.7238,7.1946,-2.7270,-6.8929,0.1013,-0.2788,8.8473
6.7487,6.4548,-2.2745,-6.4763,0.0312,-0.2749,-6.3359
6.7705,6.7253,-2.8898,-6.5050,-0.0368,-0.4391,-36.7481
6.7951,7.2784,-2.9760,-6.4620,-0.1239,-0.6346,-38.8473
6.8189,6.9599,-2.1404,-7.5561,-0.0290,-0.6353,-17.0916
6.8433,5.8754,-1.7717,-8.0325,0.1281,-0.4408,1.3282
6.8672,4.6998,-1.9369,-7.4124,0.0787,-0.1621,11.4656
6.8915,5.6599,-2.8563,-6.9911,-0.0482,-0.3322,-4.5878
6.9149,6.1483,-2.4852,-7.4196,-0.1551,-0.3713,-1.2672
6.9392,6.3255,-2.1787,-7.8745,-0.0971,-0.3869,18.8321
6.9630,5.1356,-1.4054,-8.1906,-0.0400,-0.2780,27.0229
6.9841,4.2449,-1.6640,-7.8338,0.0489,-0.0474,11.5267
7.0098,4.9656,-2.0662,-7.5824,-0.0567,-0.1328,3.6947
7.0321,5.8969,-1.9824,-8.4946,-0.1182,-0.2922,11.4885
7.0577,5.5426,-1.9489,-8.2073,-0.0416,-0.3233,1.1221
7.0796,4.6424,-2.0159,-8.5665,-0.0164,-0.2477,4.4351
7.1049,4.9057,-2.5115,-8.3175,-0.0033,-0.1418,16.6947
7.1280,6.6822,-3.3519,-7.1778,-0.2557,-0.6293,6.4885
7.1522,4.7214,-2.0925,-8.5353,-0.3046,-0.6451,0.9924
7.1741,3.4285,-0.5578,-9.1435,-0.1250,-0.5712,1.0305
7.1981,2.3607,-0.5986,-9.2368,0.0526,-0.2462,-6.9618
7.2236,4.2234,-1.8435,-7.7165,-0.0687,-0.4730,-16.7557
7.2479,4.1779,-1.3144,-9.0190,-0.0761,-0.4765,32.1832
7.2735,2.8539,-1.7526,-9.0644,-0.1325,-0.4755,16.6718
7.2987,1.6281,-0.9553,-9.4523,0.0205,-0.1279,10.2214
7.3234,2.3631,-1.5131,-9.1075,0.1651,0.0000,0.2595
7.3485,3.9887,-3.1292,-8.3199,-0.0914,-0.3896,-11.3740
7.3727,2.9090,-1.7334,-9.1913,-0.0696,-0.3440,1.5344
7.3979,2.3679,-0.9553,-9.7348,-0.0277,-0.2276,1.2366
7.4222,2.1620,-1.3958,-9.2680,0.0619,-0.1380,5.6031
7.4481,2.9784,-2.3224,-9.1267,-0.0467,-0.2546,-0.8702
7.4731,2.6145,-1.4078,-8.9830,-0.0540,-0.2497,12.7557
7.4981,2.1069,-1.5610,-9.3829,-0.0732,-0.2847,7.2061
7.5313,1.8794,-1.3575,-9.6199,0.0474,-0.2129,7.9237
7.5580,2.5570,-1.9944,-8.7652,0.0339,-0.2620,-2.6183
7.5850,2.0399,-1.8411,-9.2249,-0.0509,-0.2834,4.2824
7.6101,1.5586,-1.8411,-9.4092,-0.0425,-0.2906,3.6336
7.6322,0.9481,-1.4557,-9.5026,0.0013,-0.3058,3.7176
7.6570,1.1301,-1.3360,-9.8665,0.0520,-0.1917,11.3435
7.6798,1.4988,-2.2673,-8.6622,0.0189,-0.2867,-5.8473
7.7048,1.4317,-2.0327,-9.5457,-0.0999,-0.3623,12.3511
7.7279,1.0702,-1.6209,-9.6654,-0.1209,-0.4009,7.5038
7.7534,0.5555,-1.2258,-9.7468,-0.0136,-0.3085,1.3969
7.7760,-0.6560,-1.0965,-9.0549,0.0929,-0.1007,6.3817
7.8012,-0.2298,-1.7909,-8.9447,0.0793,-0.1467,-14.7634
7.8241,1.0151,-1.5083,-9.5265,0.0440,-0.3326,14.7328
7.8545,0.1149,-1.4198,-9.3518,0.0301,-0.2242,33.7099
7.8816,-0.9433,-1.6855,-9.8210,0.1572,-0.0143,19.3664
7.9101,0.9864,-2.6073,-9.0812,0.0770,-0.2279,4.6107
7.9373,1.0678,-2.0423,-9.5696,-0.1024,-0.5232,0.3893
7.9641,-0.9170,-1.1516,-9.3685,-0.0297,-0.3215,25.9160
7.9900,-1.5778,-1.7645,-8.9519,0.0414,-0.1221,16.3893
8.0172,-0.4573,-2.0063,-9.4212,0.0069,-0.2548,-5.9618
8.0444,-0.1484,-1.5969,-9.0477,-0.0430,-0.5824,-9.9771
8.0705,-1.5562,-1.8962,-9.7324,-0.0543,-0.3940,5.8015
8.1024,-2.2075,-1.4006,-9.5361,0.0453,-0.0178,13.5344
8.1295,-0.9936,-2.0446,-9.2847,-0.0582,-0.2652,6.2137
8.1562,-0.6752,-2.1979,-9.2943,-0.1102,-0.4338,4.4885
8.1820,-2.4373,-1.4174,-9.4595,-0.0195,-0.3222,-4.1145
8.2145,-2.6145,-1.2953,-9.0166,-0.0163,-0.3157,-22.1908
8.2380,-0.7422,-2.2769,-8.5234,-0.0452,-0.6539,-43.1527
8.2652,-1.7502,-1.1516,-9.2129,0.1022,-0.3953,31.9237
8.2968,-3.1867,-2.1165,-8.7125,-0.0488,-0.3006,37.1069
8.3213,-3.9121,-1.5083,-8.8035,-0.0605,-0.1852,22.1985
8.3460,-3.2561,-1.2234,-9.3925,-0.0765,-0.1309,17.0611
8.3694,-2.3703,-2.3080,-8.7867,-0.1020,-0.3043,10.3359
8.3935,-3.0358,-1.7549,-9.0764,-0.1971,-0.3064,16.8473
8.4160,-3.6990,-1.6664,-8.6167,-0.2090,-0.1602,16.6794
8.4415,-3.9528,-0.6345,-9.0214,-0.1743,-0.0239,0.9160
8.4661,-2.7797,-0.8499,-8.2791,-0.1978,-0.2535,-6.5191
8.4904,-2.6600,-1.6592,-8.6215,-0.2178,-0.4091,3.1527
8.5154,-4.2258,-0.8930,-8.7412,-0.1809,-0.3027,-8.3206
8.5383,-3.8475,0.1389,-8.1810,-0.0181,-0.0237,18.8626
8.5636,-3.6703,0.1197,-8.1977,-0.0696,-0.1995,14.2672
8.5855,-4.0582,-0.4621,-8.6119,-0.1338,-0.3039,-1.8855
8.6099,-3.9552,-0.0479,-8.8370,-0.0443,-0.2513,1.5802
8.6330,-4.2665,-0.0575,-8.3007,0.0332,-0.2077,3.3435
8.6582,-4.9536,0.1437,-7.7883,0.1072,-0.1194,5.7252
8.6812,-4.8076,-1.4916,-7.8482,0.0200,-0.2761,-15.7557
8.7060,-3.6990,-0.5195,-9.0142,-0.0134,-0.3755,4.9695
8.7295,-4.0438,-1.1827,-8.4036,0.0211,-0.4501,-3.6718
8.7541,-5.7533,-0.2370,-7.8386,0.0982,-0.3567,-11.2443
8.7771,-5.5330,0.1006,-7.6040,0.0746,-0.4916,-6.1679
8.8014,-4.7381,-1.2617,-8.0804,0.0231,-0.5940,7.4351
8.8271,-5.0996,-1.5371,-8.1977,0.0244,-0.4317,24.0611
8.8534,-6.0382,-0.6105,-7.8865,0.0591,-0.2051,9.0000
8.8783,-6.5122,-0.4238,-7.5537,0.0839,-0.1711,-6.3511
8.9034,-4.7190,-0.9912,-7.8721,0.0041,-0.3147,9.3740
8.9280,-5.5665,-0.9864,-7.4484,-0.1084,-0.4000,36.8931
8.9528,-6.5146,-0.3615,-7.8458,-0.1160,-0.1961,33.5267
8.9762,-7.5489,0.0311,-7.2927,-0.0236,0.0224,10.9542
9.0010,-7.1874,-0.3352,-6.2201,-0.0697,-0.1244,-8.1145
9.0235,-5.3989,-0.2969,-6.5936,-0.1298,-0.3182,-1.4733
9.0486,-6.1794,-0.2227,-7.2425,-0.0571,-0.2446,11.9924
9.0718,-7.2065,-0.0503,-6.5553,-0.0157,-0.1535,-4.6336
9.0969,-7.7189,-0.0383,-6.2225,-0.0071,-0.1318,-37.6794
9.1219,-6.9839,-0.0982,-6.8666,-0.0247,-0.1370,-22.0000
9.1458,-6.2225,0.3519,-7.3646,-0.0140,-0.0685,33.3969
9.1714,-7.4723,0.1389,-6.4763,0.0444,-0.1022,17.9237
9.1953,-7.2401,-0.9601,-7.0150,-0.0076,-0.0937,-0.1603
9.2198,-6.5649,-0.8188,-7.7788,-0.0853,-0.0091,14.8168
9.2426,-6.5912,-0.1030,-6.6894,-0.1100,0.0818,20.0458
9.2682,-8.2289,0.7925,-5.8682,-0.1352,0.1133,25.1069
9.2937,-7.0294,0.1197,-7.3358,-0.0816,0.1602,-20.7710
9.3173,-5.6336,-0.3639,-6.8402,-0.0791,-0.1059,-14.9466
9.3420,-6.7564,0.1006,-6.6056,-0.0707,-0.0788,-13.9695
9.3664,-9.6343,0.9098,-6.0837,-0.0174,0.2503,-35.8015
9.3909,-6.8426,-0.0335,-7.6519,0.0862,-0.1368,-145.5802
9.4154,-5.5976,-2.8276,-8.9735,-0.1198,-0.1308,-92.2595
9.4392,-5.0877,-1.7597,-5.3893,-0.1894,-0.0102,-12.6565
9.4641,-6.1555,-0.3400,-7.1850,-0.1926,0.1129,-3.6336
9.4880,-4.9728,0.5986,-7.8219,-0.0478,-0.1161,30.8779
9.5129,-6.3135,-0.9002,-6.6966,-0.1778,-0.2827,-18.4198
9.5355,-5.7796,-1.0271,-5.5402,-0.1185,-0.6955,17.4198
9.5609,-7.6255,0.7997,-6.0693,-0.0244,-0.6864,10.7863
9.5839,-7.5034,1.2306,-7.2425,0.0217,-0.5154,-10.1679
9.6091,-7.9009,1.1109,-7.3598,0.1369,-0.1759,14.1908
9.6303,-7.7333,-0.2035,-6.1770,0.1586,-0.0147,4.0000
9.6549,-7.9487,-0.6177,-5.3343,0.1238,-0.1218,-1.0382
9.6780,-7.9392,-0.5052,-5.9783,0.1087,-0.1838,-1.7023
9.7027,-8.6622,-0.9170,-7.2616,0.1464,-0.3073,-27.3969
9.7262,-8.1714,-0.8619,-5.4229,0.1850,-0.1512,-19.7557
9.7510,-8.2169,-0.5124,-5.1044,0.2289,-0.1593,-16.2214
9.7752,-7.4675,-1.5060,-5.3008,0.1083,-0.2801,-12.8397
9.8004,-7.9128,-0.6440,-5.6527,0.1981,-0.3111,22.9618
9.8248,-7.5489,-2.1261,-5.3893,0.2729,-0.3995,-12.3817
9.8489,-8.7556,-2.1045,-4.9728,0.1987,-0.3478,16.5191
9.8740,-8.9926,-1.1756,-5.0135,0.1283,-0.2097,21.6794
9.8991,-8.5928,-0.5698,-5.3367,0.1063,-0.0298,42.1374
9.9245,-8.3175,-1.1325,-4.4748,0.2338,0.0452,16.9542
9.9495,-8.0709,-2.3990,-4.4388,0.0108,-0.1287,-25.6260
9.9737,-8.3294,-1.3024,-5.1739,0.0136,-0.1290,7.8855
9.9989,-8.5042,-0.3208,-4.7932,0.0711,-0.0400,58.9084
10.0214,-8.3725,-1.4772,-4.4484,0.1171,-0.0878,38.8397
10.0461,-8.4491,-0.8930,-4.0821,0.0341,-0.1449,-9.6336
10.0688,-8.5976,-2.0662,-4.6160,-0.0470,-0.1114,-38.3282
10.0941,-7.2329,0.0335,-4.8267,-0.0323,-0.1264,39.6183
10.1201,-8.5210,-0.6153,-3.9887,0.0417,-0.0792,12.0153
10.1458,-9.2392,0.1053,-3.8618,-0.0721,-0.1232,-5.2290
10.1709,-8.1762,-1.0989,-4.4053,-0.0654,-0.2542,-26.8626
10.1947,-8.4659,-1.1372,-5.3151,0.1301,-0.0415,-40.7634
10.2187,-8.3438,-0.4334,-3.3543,0.0481,-0.1128,-5.7939
10.2413,-8.5114,0.0407,-3.5027,-0.0197,-0.1294,13.7557
10.2653,-8.6072,-1.7502,-4.5849,-0.0651,-0.2348,3.6565
10.2907,-8.7580,-0.4884,-3.5698,-0.0305,-0.2087,-7.4504
10.3151,-8.7149,-0.5890,-3.9600,-0.0261,-0.1230,9.4809
10.3398,-9.2416,0.0168,-3.8044,0.0484,-0.1010,23.4885
10.3634,-8.6814,-0.8452,-4.2904,-0.0224,-0.2030,27.1603
10.3880,-9.1530,-0.6488,-3.2346,0.0048,-0.2572,-12.4198
10.4109,-9.1075,-1.6041,-4.0342,0.0032,-0.0938,-24.3435
10.4361,-8.2863,0.0144,-2.6121,-0.0319,-0.0499,-19.3740
10.4586,-9.2177,-1.6735,-3.2992,-0.1009,-0.0865,-10.3740
10.4839,-9.0261,-0.6823,-3.0550,-0.0141,-0.2436,4.1679
10.5090,-9.0549,-0.4525,-3.5147,0.0074,-0.1700,16.8473
10.5322,-9.1889,-1.1301,-3.9265,-0.0044,-0.0762,12.9466
10.5576,-9.0237,-0.4525,-2.9928,0.0623,-0.0332,-5.3206
10.5805,-8.5736,0.2969,-3.2298,0.0507,-0.0259,-6.5267
10.6061,-8.9112,-0.4453,-2.9784,0.0467,-0.0938,-19.2824
10.6305,-8.9112,-1.1085,-3.0885,0.0142,-0.1204,-5.7710
10.6531,-8.7891,-0.5938,-2.6887,0.0215,-0.0942,-2.8626
10.6779,-8.9136,-0.0383,-2.4086,0.0077,-0.1767,1.2748
10.6999,-9.2799,-0.1724,-2.6384,0.0235,-0.1642,-7.6947
10.7245,-8.6598,-1.6855,-3.2130,-0.0147,-0.1506,-8.8931
10.7499,-9.1650,-1.0223,-2.6360,0.0168,-0.0925,0.6489
10.7735,-9.5385,-0.9074,-2.9090,0.0239,-0.0527,-0.9466
10.7985,-8.8298,-0.9505,-2.8850,-0.0039,-0.1680,5.3206
10.8214,-9.0094,-1.6089,-2.4014,-0.0119,-0.2223,-38.4504
10.8465,-9.1602,-1.4820,-3.0143,0.0295,-0.1219,-11.5344
10.8700,-8.8801,-0.1987,-2.4205,0.0307,-0.1160,24.8092
10.8957,-9.5816,-0.8811,-2.7270,0.0638,-0.0956,18.7023
10.9194,-9.4499,-1.1899,-2.4397,0.0424,-0.0977,-7.4122
10.9455,-9.3494,-1.1301,-2.8946,0.0073,0.0301,-34.1527
10.9710,-9.0166,-1.3096,-2.5929,0.0074,0.0526,-4.5344
10.9978,-9.7803,-1.4940,-2.2314,-0.0220,0.0689,-7.5954
11.0226,-9.2296,-1.7909,-2.7869,-0.0836,0.0339,-2.5420
11.0495,-9.3541,-1.4413,-2.5235,-0.0737,0.1371,-23.6718
11.0727,-9.5505,-0.7302,-2.3008,-0.0874,0.1893,2.0687
11.0993,-9.8713,-0.6967,-2.7797,-0.0062,0.2192,-5.3740
11.1272,-8.9926,-1.6376,-2.7797,-0.0481,0.2021,-4.5420
11.1537,-9.5696,-1.9249,-2.2577,-0.0887,0.1255,-5.4885
11.1805,-9.6175,-1.2857,-2.8228,-0.0717,0.2112,-12.9313
11.2076,-9.3158,-1.1253,-3.3710,-0.0593,0.1713,-7.6565
11.2340,-8.6431,-1.4605,-3.5769,-0.0407,0.2122,-1.3359
11.2595,-8.8562,-1.0678,-3.2777,-0.0234,0.2349,11.2290
11.2851,-9.5433,-0.9122,-3.5410,-0.0247,0.3091,-1.0076
11.3119,-8.8825,-1.6089,-3.8738,-0.0331,0.3649,-20.3511
11.3384,-8.2432,-1.1875,-4.0270,-0.0760,0.5034,22.2748
11.3627,-8.4994,-1.2617,-3.3806,-0.0973,0.3054,7.1145
11.3900,-8.5880,-0.9816,-4.4676,-0.0892,0.3260,-3.1832
11.4167,-8.2791,-1.3360,-4.6519,-0.0778,0.3552,-17.1985
11.4538,-8.2839,-1.1803,-4.4245,-0.0915,0.2316,-5.3435
11.4781,-8.2337,-0.9888,-4.4724,-0.1019,0.2305,6.9847
11.5027,-8.1834,-0.9529,-4.9512,-0.1342,0.1989,3.6183
11.5271,-8.0637,-0.6009,-5.2840,-0.0480,0.2699,-8.7939
11.5523,-7.5609,-1.1684,-5.1882,-0.0796,0.2240,-9.0916
11.5747,-7.8721,-1.3647,-5.4684,-0.0839,0.2615,-6.7328
11.5995,-7.6902,-1.1037,-5.4109,-0.1041,0.2540,-9.5420
11.6229,-7.8075,-1.0080,-6.0621,-0.0502,0.3788,-9.8015
11.6471,-7.5561,-1.9082,-5.9328,-0.1023,0.4066,-11.5802
11.6708,-7.3358,-1.7334,-6.0980,-0.1963,0.4424,-0.6336
11.6948,-7.3933,-0.9122,-5.7197,-0.2088,0.4445,4.9008
11.7189,-7.3215,-0.0479,-5.8538,-0.0604,0.3687,-2.7405
11.7443,-6.1028,-1.4820,-7.0461,-0.0508,0.2629,-4.3435
11.7669,-6.6559,-0.9409,-6.9288,-0.0407,0.3633,2.0687
11.7919,-6.4715,-1.1779,-6.7086,-0.0713,0.3060,-1.0992
11.8140,-6.9192,-0.4669,-7.1587,-0.0522,0.3548,-5.1221
11.8394,-6.0837,-0.0407,-6.0885,0.0131,0.2365,-7.6260
11.8620,-5.8179,-1.4940,-7.0174,-0.0276,0.1909,-7.1145
11.8862,-6.0430,-0.9697,-7.3287,-0.0392,0.2890,2.8015
11.9096,-6.1435,-0.4860,-7.2425,-0.0407,0.2570,3.1069
11.9350,-6.2513,0.1317,-7.2257,0.0143,0.2498,-4.6412
11.9588,-5.2553,-1.6352,-7.8195,-0.0780,0.2736,-1.0153
11.9835,-4.8746,-1.3024,-7.3023,-0.1177,0.1527,24.4962
12.0070,-6.7277,-0.8523,-7.4316,-0.1122,0.2104,13.0916
12.0355,-6.8115,0.1101,-7.5322,-0.0091,0.2970,-8.4427
12.0604,-5.7988,-0.6201,-8.0038,-0.0173,0.2845,-23.9466
12.0876,-5.1236,-0.3735,-7.8410,-0.0013,0.2588,21.7710
12.1121,-5.4037,-1.4557,-7.3454,-0.0011,0.3543,28.3359
12.1472,-4.2760,-0.7685,-7.9871,-0.1164,0.2073,1.0611
12.1737,-4.4149,1.1061,-7.8314,-0.0171,0.4108,5.1527
12.1971,-2.9951,-0.1221,-7.6351,-0.0652,0.2484,33.6641
12.2236,-5.7126,0.2777,-8.8897,0.0491,0.3569,-0.8244
12.2478,-4.3790,0.4118,-8.0278,0.1445,0.3062,6.3130
12.2746,-3.5434,-1.2067,-9.2105,0.0556,0.3098,-4.0534
12.2980,-3.2010,-1.2258,-9.0333,-0.0396,0.2778,-1.4275
12.3257,-3.3255,-0.3472,-9.2560,-0.0337,0.3349,4.4122
12.3501,-4.0151,0.1173,-8.7221,-0.0123,0.3944,-0.4122
12.3772,-3.0478,-0.4262,-8.6359,-0.0083,0.3186,-3.0611
12.4022,-2.5714,-1.2641,-8.9519,-0.0733,0.2311,-4.8321
12.4298,-2.8395,0.0958,-9.2320,-0.0693,0.3430,-0.5115
12.4546,-3.4141,-0.4381,-8.8466,-0.0066,0.2982,-7.5725
12.4804,-3.6152,0.1317,-8.7987,0.1081,0.3728,-14.2443
12.5066,-1.5012,-1.2234,-9.2392,0.0313,0.1965,-19.4504
12.5326,-1.6233,-0.5698,-9.6343,0.0163,0.1965,15.5038
12.5606,-2.0901,0.0335,-9.5385,0.0503,0.1807,31.4275
12.5881,-3.0526,0.4046,-9.6055,0.1649,0.4165,11.5725
12.6145,-1.4653,-0.0599,-8.8107,0.1507,0.3743,-8.4046
12.6429,-0.5794,-1.5850,-9.3996,0.0079,0.1568,-24.4809
12.6709,-0.9912,-0.7135,-9.5050,0.0235,0.1199,15.0305
12.6966,-2.0231,-0.5938,-9.3781,-0.0023,0.1836,5.4809
12.7230,-2.1500,-0.5148,-9.0142,0.0332,0.2538,-21.8321
12.7512,-0.7877,-1.6137,-9.4188,-0.0184,0.1730,-21.2290
12.7787,-0.7590,-0.8811,-9.7875,0.0125,0.2512,7.4427
12.8065,-1.1516,-1.2258,-9.1339,-0.0087,0.2304,-11.3893
12.8350,-0.5219,-1.7478,-9.5816,-0.0616,0.2468,-20.9389
12.8793,0.0718,-0.3974,-9.6319,-0.0760,0.1616,25.5267
12.9039,-0.4094,-0.3136,-9.7276,-0.0720,0.1444,8.3511
12.9288,-0.4980,-0.1293,-9.6798,-0.0467,0.2344,-7.9389
12.9553,0.3687,-0.9505,-10.0556,-0.0758,0.2759,-2.0687
12.9800,1.2857,-0.1796,-9.6199,-0.0674,0.0827,21.2672
13.0071,0.4621,0.1987,-9.9575,-0.0230,0.0695,27.8397
13.0328,0.1484,-0.7805,-9.2153,-0.0202,0.1280,12.7863
13.0599,0.1269,-0.2825,-9.4978,-0.0131,0.1223,4.6641
13.0861,0.9673,-0.9194,-9.3541,-0.0447,0.0604,-4.1298
13.1103,0.8978,-0.4621,-9.2943,-0.0213,0.0584,14.8626
13.1329,0.3065,-0.5052,-9.4643,-0.0191,0.0791,6.6107
13.1601,0.0383,-0.1101,-9.6319,0.0442,0.1713,-0.0153
13.1877,0.7733,-1.2067,-9.0453,0.0037,0.0756,-21.5496
13.2168,1.1109,-0.9170,-9.1674,-0.0273,0.1588,-9.3664
13.2472,0.6512,-0.7183,-9.6869,-0.0349,0.0924,12.9084
13.2760,0.3256,-0.0120,-9.7540,0.0119,0.1823,8.8550
13.3008,0.9337,-0.4788,-10.1825,0.0166,0.1660,13.4885
13.3289,0.9098,-0.6297,-9.9503,0.0112,0.0937,-8.9924
13.3569,0.6153,-0.5028,-9.5888,0.0178,0.1146,-3.1374
13.3853,0.7111,-0.4286,-9.5265,0.0318,0.2011,-13.6107
13.4146,1.4820,-0.5794,-9.8354,-0.0222,0.2737,17.9237
13.4441,4.2713,-2.7485,-10.7691,-0.4550,-0.1480,102.8626
13.4756,-2.7797,-1.0151,-9.9311,-0.1033,0.4238,-73.4046
13.5018,4.4700,1.8938,-9.6582,0.0030,0.1496,49.1221
13.5307,1.6185,0.6512,-9.5912,0.0791,0.1788,29.2977
13.5763,2.0183,-0.7973,-9.4379,-0.0343,0.2369,-6.6870
13.6037,2.5833,-0.0694,-9.6127,-0.0526,0.0994,-21.7786
13.6316,2.0614,0.2825,-9.5241,-0.0188,0.1724,-5.2214
13.6577,2.8108,-0.7422,-9.3206,0.0303,0.1397,-11.6641
13.6844,2.5163,-0.2801,-9.3326,0.0203,0.1432,0.8473
13.7109,3.1843,-1.0175,-9.2751,-0.0545,-0.0050,-13.8168
13.7363,2.3990,0.7422,-9.2416,0.0428,0.0598,18.0992
13.7770,2.5379,0.4357,-9.0070,0.1654,0.1473,-3.2595
13.8122,3.7613,-1.7454,-9.3374,0.0015,0.0378,-0.9389
13.8374,2.6384,0.0335,-9.4212,0.0161,0.0219,11.4656
13.8622,2.5259,-0.0838,-9.0549,0.0826,-0.0366,19.2824
13.8873,1.8459,-0.1700,-9.3374,0.1426,0.0846,-17.5344
13.9101,3.7517,-0.6776,-9.3087,0.0604,-0.0570,5.0076
13.9348,3.2322,-0.4238,-9.2823,0.0539,-0.1107,15.4580
13.9622,2.8012,-0.6345,-9.4140,0.1016,-0.1203,-8.6107
13.9851,2.5331,0.5962,-9.5840,0.0950,-0.0482,27.7863
14.0100,2.6025,-0.5674,-9.1818,0.1482,-0.0808,3.9389
14.0328,2.8730,-0.4022,-9.2344,0.1624,-0.1092,6.5038
14.0579,2.8467,-0.9194,-9.3446,0.1324,-0.1463,9.7710
14.0822,1.9201,0.1389,-9.3326,0.1699,-0.0593,30.4504
14.1076,1.7957,-0.0910,-9.3302,0.2769,0.0254,18.4198
14.1306,1.9920,0.1077,-9.1794,0.4080,0.0646,-3.4885
14.1565,2.3152,-0.9122,-9.1123,0.4875,0.0653,-16.4351
14.1810,2.9544,-2.5331,-8.4348,0.4369,0.0543,-42.8626
14.2061,3.4261,-2.5857,-9.4044,0.4162,0.0811,-26.8473
14.2281,3.8164,-1.3599,-8.5856,0.4006,0.1190,5.2824
14.2548,3.4979,-1.7166,-8.8681,0.4637,-0.1225,-14.1069
14.2815,2.3798,-2.0183,-8.8131,0.5194,-0.0674,-28.3206
14.3085,2.1620,-1.6448,-9.3039,0.5887,0.0486,3.0840
14.3348,2.1835,-3.2992,-8.5425,0.5982,0.1663,-4.6183
14.3613,2.7485,-4.3862,-8.1307,0.5202,0.1152,-25.2748
14.3868,3.1939,-3.7086,-8.3486,0.5170,0.0339,0.0458
14.4134,2.5115,-2.6336,-8.3438,0.5360,0.1268,14.1603
14.4399,1.7238,-4.1444,-8.1235,0.6413,0.4405,-2.3511
14.4673,3.9887,-5.1380,-7.5250,0.5423,0.2023,-9.8855
14.4940,3.8188,-5.5498,-7.6614,0.4671,-0.0584,-17.7481
14.5195,3.1005,-5.4851,-7.3694,0.4305,-0.0781,-7.9771
14.5449,3.0263,-4.5035,-7.7093,0.4353,-0.0440,14.9847
14.5687,3.2394,-3.3591,-7.6710,0.6151,0.1368,18.5573
14.6003,2.9664,-8.2528,-6.2920,0.5078,0.0291,-41.6260
14.6253,5.0901,-6.5290,-6.5817,0.4161,-0.2416,7.6489
14.6492,2.8419,-4.7190,-6.8259,0.4297,0.0184,29.6565
14.6743,2.2841,-4.8770,-6.7924,0.6450,0.0435,12.8550
14.6974,2.6504,-4.1013,-6.3734,0.7819,0.0420,-11.2443
14.7221,2.3918,-6.8187,-5.5545,0.8136,0.1483,-24.2748
14.7492,3.5817,-7.8386,-5.2553,0.7307,0.0608,-31.2595
14.7787,3.7972,-6.1794,-4.9057,0.6706,-0.0414,17.7557
14.8055,3.4165,-6.5386,-4.7262,0.8284,-0.1453,10.1450
14.8317,3.0311,-10.2831,-4.7285,0.6819,-0.0244,-0.7328
14.8588,3.7182,-8.3342,-4.1372,0.7179,0.0298,17.1603
14.8859,3.7804,-8.0756,-3.4764,0.8118,-0.1003,16.1985
14.9135,3.5075,-7.6638,-3.1149,0.6251,-0.1174,-8.7023
14.9403,2.9353,-8.6407,-2.9880,0.5792,-0.0078,-3.7634
14.9670,3.3375,-8.8178,-2.8204,0.5651,0.1327,41.3817
14.9938,2.4636,-8.9040,-2.3774,0.4631,0.3391,60.4046
15.0203,2.7988,-7.8195,-1.9944,0.4611,0.0062,25.5496
15.0474,2.6935,-8.5736,-1.5850,0.6941,-0.1504,19.2901
15.0729,1.1085,-9.3661,-1.5826,0.6061,0.2220,29.0687
15.0992,1.5706,-8.0613,-1.2977,0.6286,0.3082,4.3893
15.1263,3.0167,-8.7891,-1.1396,0.8106,0.0065,11.9160
15.1539,2.9544,-10.0987,0.0455,0.6617,-0.0946,10.4351
15.1807,2.0303,-10.8888,0.2011,0.4515,-0.0924,44.1985
15.2078,1.2929,-10.6781,0.6752,0.3123,0.0431,36.8473
15.2350,1.8771,-9.6055,0.3591,0.2858,-0.0032,37.6565
15.2619,1.5012,-10.0676,1.1085,0.2839,-0.1117,2.7710
15.2880,0.8356,-10.4196,1.2186,0.2469,-0.0787,-18.5115
15.3156,1.1564,-9.4595,1.1468,0.1869,0.0076,1.5649
15.3479,1.7382,-9.7181,1.3384,0.1579,0.0066,2.2901
15.3712,1.9537,-10.0173,1.0918,0.1142,0.0607,14.0305
15.3959,1.3647,-10.0796,1.7765,0.0475,0.0671,11.1756
15.4191,1.1061,-8.9807,0.8475,0.0420,0.1287,13.1985
15.4439,2.5211,-7.5513,0.6105,0.1999,0.0883,15.8168
15.4663,1.6089,-9.9240,1.5036,0.1566,-0.0834,-22.5344
15.4907,1.3527,-10.1251,1.2450,0.0755,-0.0473,-2.3130
15.5161,1.0223,-10.3908,1.8220,-0.0313,0.1086,18.6183
15.5412,1.2833,-10.3238,1.4820,-0.0918,0.1378,9.9618
15.5652,1.6640,-9.5361,1.3671,-0.0800,0.0342,-12.3206
15.5905,1.3384,-9.7181,1.2641,-0.0555,-0.0342,-18.8931
15.6137,0.9146,-10.0293,1.6257,-0.0904,0.1031,-10.2519
15.6388,-0.1437,-11.9327,1.6281,-0.3409,0.2670,-30.1221
15.6617,1.1229,-10.3597,1.6568,-0.4570,0.2089,-10.8550
15.6881,2.1596,-8.8609,0.3759,-0.3375,0.2210,8.6947
15.7106,2.7007,-8.8514,0.3855,-0.2834,0.0858,2.5038
15.7358,1.8627,-9.5768,0.2610,-0.2967,-0.0238,-33.1603
15.7594,1.6496,-11.1881,0.1867,-0.5166,-0.0566,-27.0611
15.7851,1.5634,-10.6853,0.3903,-0.7099,0.0675,-10.3740
15.8077,2.0686,-8.6263,-0.1748,-0.6471,0.1516,20.6641
15.8327,1.7980,-7.9918,-0.9960,-0.5479,0.1410,13.2824
15.8550,1.6041,-9.1243,-0.9242,-0.4302,0.0496,-6.5420
15.8804,1.5036,-11.5568,-0.5890,-0.6315,-0.0777,-49.5725
15.9034,1.5610,-9.6798,-0.9242,-0.6833,-0.0115,-30.5420
15.9293,2.5307,-8.6191,-1.7142,-0.6565,0.1415,3.5573
15.9546,2.9185,-8.4491,-2.0662,-0.5595,0.0956,18.7405
15.9787,1.9728,-9.6534,-2.2218,-0.5633,-0.0720,-23.9924
16.0070,1.6568,-9.7612,-2.1572,-0.6284,-0.2323,-28.2519
16.0287,2.2721,-8.3845,-3.0430,-0.5419,-0.0026,27.9924
16.0538,2.0901,-9.0884,-3.3591,-0.6813,0.1742,34.4046
16.0761,1.9537,-9.0381,-3.5578,-0.8382,0.3010,9.7634
16.1007,1.8555,-7.8602,-3.7206,-0.7370,0.0952,-19.8779
16.1403,1.8938,-7.9559,-4.4077,-0.5907,0.0060,-30.6183
16.1637,2.1835,-6.7086,-5.3008,-0.4866,0.0854,-26.6641
16.1890,3.3758,-7.3023,-5.2984,-0.5223,0.0432,-16.0229
16.2121,3.1460,-7.7213,-5.3223,-0.5485,-0.1468,-46.5420
16.2372,2.4517,-7.1275,-5.9759,-0.6069,-0.0854,-45.4046
16.2589,3.0478,-5.9256,-5.9041,-0.5355,0.0947,-31.0687
16.2837,3.0718,-5.8083,-5.8299,-0.3672,0.1087,-16.1450
16.3072,3.3279,-7.1563,-5.9233,-0.3729,-0.0470,-20.0534
16.3322,3.3543,-7.2975,-6.0621,-0.4288,-0.0874,-34.3282
16.3565,3.3423,-6.0071,-6.4859,-0.4756,-0.1164,-22.3817
16.3811,4.3191,-6.0861,-6.7564,-0.5721,-0.1055,-10.2061
16.4047,3.8379,-5.1811,-7.2664,-0.5038,-0.1072,-9.9466
16.4297,3.2394,-5.8897,-6.7445,-0.4645,-0.2377,-15.2595
16.4618,3.2729,-6.0358,-6.8235,-0.5494,-0.2570,-13.7023
16.4887,3.0454,-4.4772,-7.3358,-0.4348,0.0252,13.9618
16.5141,2.6240,-4.8578,-6.9767,-0.4853,-0.1706,-44.7710
16.5416,2.5642,-4.8147,-7.9607,-0.6182,-0.1199,-43.5115
16.5690,3.3902,-3.0478,-7.7428,-0.2549,0.0285,18.0687
16.5929,3.0047,-3.1196,-8.0828,-0.1673,0.2490,43.3359
16.6181,3.1388,-5.1834,-7.5441,-0.3004,-0.0183,-18.5420
16.6406,3.1699,-4.6280,-8.0086,-0.4481,-0.0026,-38.4198
16.6677,4.2497,-3.5314,-7.9583,-0.3944,-0.0077,-24.4275
16.6941,4.4676,-2.8611,-8.7125,-0.2653,-0.0041,6.8244
16.7189,3.4836,-3.5362,-8.1930,-0.2028,-0.0310,-13.2748
16.7547,2.9592,-3.8020,-8.4515,-0.3763,-0.1126,-35.2290
16.7851,3.7350,-2.6552,-9.0046,-0.3265,0.1091,41.5954
16.8155,3.8618,-2.7461,-8.3175,-0.2715,-0.2679,-40.9160
16.8420,3.1963,-2.9808,-8.9926,-0.3939,-0.2115,-34.0611
16.8702,2.3391,-2.5402,-8.3414,-0.3639,-0.0133,-11.8931
16.8977,4.0462,-1.6305,-8.9280,-0.2972,0.0818,18.1908
16.9239,4.0677,-2.9736,-8.2217,-0.4286,-0.3204,-51.2443
16.9514,3.1412,-1.1205,-9.1195,-0.2782,-0.1711,-17.1298
16.9786,3.1963,-1.8076,-8.6479,-0.2903,-0.1889,-21.1679
17.0062,3.7373,-2.3894,-8.8466,-0.3962,-0.1676,6.0458
17.0358,3.3998,-1.2905,-9.2632,-0.3192,-0.3937,-19.5496
17.0632,2.2027,-0.1437,-9.5792,-0.2810,-0.3896,-21.4351
17.0903,0.7566,-2.5331,-8.4156,-0.4341,-0.3751,-49.4275
17.1167,2.1237,-0.6895,-9.4164,-0.5043,-0.0764,-16.5038
17.1456,2.0830,0.8380,-9.6726,-0.4556,-0.0739,-20.2137
17.1746,2.2051,-0.8308,-9.0357,-0.5140,-0.2654,-40.3206
17.2037,2.1739,0.2610,-9.6869,-0.5457,0.0280,-7.0916
17.2318,1.7095,0.0814,-9.1195,-0.6681,-0.0688,-13.5420
17.2586,1.8603,2.0853,-9.4068,-0.6215,-0.0724,-4.4580
17.2849,1.9824,2.8706,-9.5026,-0.3903,0.0551,21.4885
17.3103,1.6783,2.6384,-9.1985,-0.4599,-0.0442,17.6183
17.3381,1.2570,1.8555,-9.1315,-0.4311,0.0274,14.6107
17.3673,3.2705,2.5163,-9.0501,-0.4647,-0.0872,0.0763
17.3943,3.0454,3.3160,-9.8162,-0.4373,-0.1242,1.1145
17.4216,2.1476,2.5187,-9.0357,-0.4641,-0.1431,19.4427
17.4488,2.8060,2.3320,-8.5042,-0.5215,-0.3099,-2.1298
17.4769,2.3894,3.9456,-9.1913,-0.4665,-0.1555,32.4122
17.5049,2.1476,4.5250,-9.1099,-0.3616,-0.0125,36.3435
17.5340,2.5139,3.3351,-8.0852,-0.4973,-0.4035,-10.7176
17.5645,0.3831,4.3407,-8.2217,-0.4989,0.0156,-3.1603
17.5916,0.2083,4.7453,-7.6902,-0.4173,0.2244,-8.8168
17.6189,2.5307,5.8012,-8.8226,-0.2389,0.3124,24.5191
17.6459,4.0701,4.5825,-7.5298,-0.3445,-0.2600,4.0153
17.6736,2.3822,4.3191,-7.6686,-0.4428,-0.2637,-17.7405
17.7013,0.5866,5.4348,-7.5705,-0.3580,-0.0023,-37.8092
17.7273,1.2402,6.1076,-8.0493,-0.3670,0.0738,-30.6794
17.7549,1.9465,5.7054,-8.0900,-0.3928,-0.0311,-12.7099
17.7835,2.2721,5.3079,-8.0373,-0.4328,-0.1672,-17.5191
17.8120,1.8004,6.2225,-7.9176,-0.3529,-0.0727,4.2137
17.8404,1.0534,6.6200,-7.2042,-0.4148,0.0753,9.4733
17.8777,0.2658,5.9520,-6.6990,-0.5700,0.1919,-26.9618
17.9051,1.0965,5.9041,-6.4452,-0.4672,0.3159,-40.4656
17.9308,1.8866,5.3463,-5.1308,-0.6312,-0.0903,-44.4580
17.9577,1.2498,9.0022,-6.5673,-0.4816,0.0153,-26.8244
17.9853,1.2570,9.1602,-5.9640,-0.4481,-0.0353,27.9160
18.0112,1.4820,6.4165,-5.2960,-0.5915,-0.1498,3.5649
18.0391,2.5355,7.6567,-5.2601,-0.4851,-0.3069,16.4809
18.0686,0.6512,10.9918,-5.9616,-0.2728,-0.1393,-5.7863
18.0953,0.0551,8.5808,-5.0518,-0.2821,-0.0903,-9.6107
18.1210,0.8787,7.1251,-3.3255,-0.4817,0.1255,-7.9847
18.1472,2.3607,8.2456,-5.9209,-0.4386,0.1761,-17.3969
18.1764,3.4165,9.0477,-5.3750,-0.3170,-0.0731,-4.3282
18.2031,2.5426,9.5864,-4.7932,-0.2944,-0.1288,38.7939
18.2303,0.3232,8.6838,-4.2545,-0.2402,0.0794,27.7023
18.2563,0.0814,8.6215,-4.0007,-0.2319,0.0506,10.0305
18.2844,1.0630,8.3989,-4.0342,-0.2493,0.0189,21.1756
18.3116,0.8811,7.9799,-3.7972,-0.2611,0.0132,17.6565
18.3375,1.2641,10.0820,-3.8475,-0.2408,-0.0086,48.8702
18.3627,0.8667,11.3653,-4.4508,-0.0620,-0.0399,10.5420
18.3875,1.3336,8.9112,-3.9121,-0.0637,0.0147,-7.7252
18.4123,2.1548,8.1427,-3.9145,-0.2055,0.0333,1.8702
18.4358,3.1005,8.9064,-4.0510,-0.1347,-0.0472,-6.9237
18.4608,2.6073,10.0676,-3.8044,-0.0262,-0.0807,10.5573
18.4833,1.3862,10.0724,-3.5171,0.0080,-0.0424,9.7634
18.5085,1.0534,9.7779,-3.3519,0.0378,-0.0156,-0.1908
18.5315,0.8978,8.6335,-3.4931,0.0120,0.0801,-10.7786
18.5559,1.9249,9.0692,-3.4237,0.0114,-0.0661,-14.7786
18.5864,2.0303,9.6055,-4.0438,0.1070,-0.0899,-13.1527
18.6135,1.6257,9.7851,-3.2872,0.0772,0.0107,-0.8092
18.6395,2.1500,8.9807,-3.8571,0.0076,0.0999,1.5725
18.6659,2.8395,10.3358,-4.0175,0.0929,-0.0437,7.9924
18.6914,1.8771,11.3916,-4.5873,0.3345,-0.0037,6.6336
18.7175,1.9106,9.4284,-3.4644,0.3044,-0.0195,20.9695
18.7451,0.9720,8.1211,-3.8307,0.3884,0.1720,-17.2290
18.7699,0.9697,10.3046,-5.0111,0.6482,0.5281,-1.9084
18.7978,1.2091,9.9168,-3.7206,0.7070,0.2674,4.0458
18.8258,2.7318,7.3502,-5.0206,0.3660,-0.3724,8.8015
18.8533,2.7533,6.7732,-5.4755,0.2560,-0.1503,9.0992
18.8802,2.1835,7.9296,-5.9975,0.2630,0.0564,-0.4580
18.9071,2.1500,9.1578,-6.4715,0.3233,0.0680,-21.4046
18.9339,3.1412,9.1650,-5.0781,0.3650,-0.2187,13.7252
18.9610,0.9242,8.8442,-6.0190,0.3857,0.0161,10.3511
18.9880,1.4222,9.2823,-6.2656,0.6054,0.3970,43.4962
19.0144,1.9273,10.6590,-6.1531,0.9664,0.9116,151.4885
19.0412,4.5035,3.2729,1.7861,1.0591,-1.9094,250.1298
19.0671,-13.3237,-0.9361,-4.1827,0.8685,0.1686,-17.4504
19.0942,0.5100,4.9991,-7.5920,0.7025,0.0402,-37.5573
19.1225,4.4436,4.3359,-7.5322,0.5980,-0.3343,-3.7863
19.1519,2.9616,5.1643,-8.5210,0.5989,-0.2759,-6.7023
19.1808,2.4469,4.8985,-8.2528,0.5390,-0.1377,55.9695
19.2080,1.3719,3.2130,-8.7484,0.4215,0.0561,38.6183
19.2344,0.3831,3.4979,-8.5712,0.3841,0.1878,-31.8244
19.2602,3.6943,1.4102,-9.0118,0.2325,-0.2146,-62.3893
19.2886,1.9201,3.5195,-9.2680,0.1443,-0.1228,3.9771
19.3159,0.9601,4.2018,-8.8418,0.1739,-0.1364,23.1603
19.3420,-0.0120,4.3048,-8.8705,0.1761,0.0473,6.5267
19.3678,1.7119,2.8706,-8.2552,0.1583,-0.0527,-10.7405
19.3942,2.4445,4.0031,-9.1554,0.1632,-0.0359,12.2672
19.4207,1.5658,4.2521,-8.8490,0.2205,-0.0223,50.1603
19.4475,0.8595,3.3926,-8.4659,0.2460,0.0860,-5.0305
19.4748,2.9137,2.3391,-9.0261,0.2177,0.0257,-20.6336
19.5015,3.3232,3.7900,-8.9112,0.1838,0.0039,68.1221
19.5300,0.1987,1.8914,-9.1961,0.1471,-0.0294,4.1756
19.5560,0.5435,4.2665,-9.7324,0.1885,0.0520,1.3969
19.5835,0.1532,4.2593,-8.0038,0.3236,0.1302,-28.3206
19.6106,3.0358,1.6783,-9.0501,0.2118,0.0840,9.0458
19.6378,2.0303,2.1668,-9.1051,0.1922,-0.1039,3.0458
19.6652,1.4437,2.9090,-9.1387,0.2380,-0.0673,5.8779
19.6951,0.3807,3.2777,-9.5792,0.3196,0.0033,-39.3817
19.7214,1.7190,3.8259,-9.1913,0.4702,-0.1529,-58.7405
19.7483,2.6025,1.9728,-9.8952,0.6246,-0.2125,-67.9084
19.7746,2.9473,1.0630,-9.4188,0.3910,-0.2155,-24.0076
19.8019,1.6352,1.4174,-9.5672,0.2848,-0.0413,19.2824
19.8283,0.9050,2.1093,-9.6869,0.2835,0.0536,22.5038
19.8548,0.4788,2.0039,-9.4978,0.4078,0.1281,-33.6260
19.8816,2.3367,1.0175,-8.8609,0.5339,-0.2058,-47.2443
19.9082,1.9393,1.0127,-9.8857,0.5436,-0.1301,-50.8015
19.9394,1.8387,1.1756,-10.0748,0.5520,-0.0998,-18.1908
19.9652,2.1284,0.4932,-9.0597,0.6947,-0.1960,8.0916
19.9891,1.3312,-1.7717,-9.3781,0.5574,-0.1265,-25.1221
20.0147,1.3719,-1.0367,-9.5888,0.4515,-0.0265,-11.0153
20.0414,0.4070,-0.6273,-9.7468,0.4137,0.0820,5.4504
20.0654,1.0702,-1.8028,-9.5648,0.3705,0.1392,-10.6031
20.0909,2.7414,-2.5738,-9.2895,0.2078,0.1044,2.5802
20.1180,2.7485,-2.2146,-9.5337,0.1624,0.0446,19.9542
20.1417,1.2210,-1.4700,-9.3589,0.1398,0.0038,18.4809
20.1678,0.4381,-1.5467,-9.4427,0.1615,0.1028,-23.0000
20.1915,2.5762,-2.5139,-8.9184,0.1605,0.0455,-5.6260
20.2169,3.0574,-3.0909,-9.2608,-0.0255,-0.0209,39.5267
20.2432,0.8164,-2.0590,-9.3350,-0.0671,0.0475,49.0153
20.2689,0.0862,-1.1971,-9.2464,-0.0213,0.0505,21.4580
20.2946,0.1891,-0.6464,-9.5481,0.0385,0.2034,23.4733
20.3205,0.6776,-1.0487,-9.1937,0.1503,0.2586,11.5649
20.3424,2.7988,-2.9209,-8.9759,0.2324,0.1841,-15.3053
20.3672,3.4429,-2.0710,-9.5433,0.1809,0.0122,5.7405
20.3906,1.9106,-1.8483,-9.2823,0.1913,0.0031,2.5954
20.4151,1.6233,-2.3200,-9.1770,0.1804,0.0363,-2.6260
20.4406,1.4868,-2.3822,-9.1937,0.2039,0.0816,-22.9313
20.4654,2.5474,-3.2298,-8.8155,0.1140,0.0559,-7.0382
20.4911,2.6935,-3.6871,-8.7364,0.0383,0.0505,16.5725
20.5137,2.7509,-2.7988,-9.2249,0.0364,-0.0139,20.9084
20.5389,1.7262,-2.0327,-9.1770,0.0307,-0.0740,-0.8168
20.5639,1.1277,-2.5043,-8.9208,0.0962,0.0293,-32.8550
20.5901,2.0877,-3.7014,-8.6838,0.0226,-0.0445,-46.3359
20.6157,2.2314,-3.2178,-8.8705,0.0381,-0.0236,-45.9771
20.6441,2.5355,-1.9225,-9.2584,0.0679,-0.1122,-40.0305
20.6665,1.4676,-2.6815,-9.1099,0.0966,-0.0160,-77.4504
20.6907,3.1843,-4.9728,-8.5832,0.0362,-0.0643,-123.9313
20.7125,2.7677,-3.1484,-8.7556,-0.0214,-0.1885,-79.3282
20.7369,2.5450,-1.0080,-9.8737,-0.0640,-0.3399,-59.8473
20.7750,1.6855,0.1173,-9.5672,0.1056,-0.3134,-125.1985
20.7988,0.2969,-2.4660,-8.6407,0.1487,-0.0215,-157.1221
20.8242,1.5945,-3.7445,-8.3103,0.0321,0.2185,-140.3206
20.8487,3.3423,-2.4876,-8.6694,-0.0389,0.1054,-108.3206
20.8729,3.6799,-1.4078,-9.3494,-0.0252,0.0245,-72.4046
20.8981,2.4349,-2.3559,-8.8250,-0.0136,0.0600,-88.2595
20.9203,1.4054,-3.1244,-8.5210,-0.0423,0.1483,-128.3817
20.9449,3.0622,-0.5076,-9.3063,0.0718,0.0492,-140.3359
20.9680,2.7198,0.1987,-9.0956,0.1415,-0.0679,-107.8702
20.9923,2.5139,-2.4110,-8.5545,0.0132,0.0345,-133.0763
21.0152,3.4093,-0.9026,-8.9160,0.0129,-0.0063,-139.1221
21.0407,4.2353,-0.0215,-9.8689,0.0837,-0.0477,-129.7939
21.0651,4.3574,-1.0487,-9.9431,0.1726,0.0467,-103.6641
21.0897,4.2234,-0.9601,-8.3773,-0.0268,-0.1047,-78.4733
21.1123,3.6655,-0.7949,-8.9016,-0.1146,-0.1470,-102.6412
21.1375,2.6384,-0.2969,-9.4475,-0.0452,-0.0059,-108.4504
21.1608,4.1779,0.6847,-9.3254,0.0017,-0.0207,-75.5573
21.1855,3.3686,0.1413,-8.8226,-0.0845,-0.0218,-79.8550
21.2091,3.4285,-0.5411,-9.1746,-0.1277,-0.0556,-115.2443
21.2407,3.5913,0.6105,-9.1722,-0.0786,0.0420,-89.1603
21.2683,4.7094,1.8268,-9.1913,0.1060,-0.1216,-33.3740
21.2934,3.3782,0.1293,-8.7747,0.0586,-0.1178,-23.4427
21.3166,1.1325,-0.7446,-8.7221,-0.0146,0.0279,-89.0153
21.3420,4.8100,2.0542,-10.0844,0.1173,-0.1752,-110.8321
21.3683,4.5250,2.3798,-9.6415,0.2441,-0.4033,-100.7939
21.3955,2.0494,-1.4485,-8.8202,0.0900,-0.4577,-94.1374
21.4219,1.9728,0.3232,-9.5696,0.0128,-0.1988,-82.8550
21.4588,1.7621,1.2258,-9.6127,0.0269,-0.0347,-58.8168
21.4846,3.3950,0.6632,-9.1171,0.0382,-0.0830,-51.6565
21.5115,2.2338,-0.1030,-9.2895,-0.1313,-0.0848,-78.0611
21.5368,3.1101,2.2505,-9.8114,-0.0360,-0.0340,-48.3282
21.5600,2.5570,2.0614,-9.8043,0.0883,-0.0455,-44.8702
21.5861,1.8507,0.1772,-8.4755,-0.0027,-0.0234,-29.1527
21.6101,2.5570,0.8667,-9.4427,-0.1009,0.1460,18.4656
21.6328,2.7916,2.6456,-10.2496,0.0080,0.1302,17.4733
21.6579,1.4078,2.8347,-9.4212,0.1454,0.0702,-13.4962
21.6825,1.5730,0.7614,-8.2049,0.0988,-0.0372,-28.0305
21.7080,3.1149,-0.3615,-9.3422,-0.0597,-0.0099,25.8244
21.7328,2.8730,0.6536,-9.7109,-0.0892,0.1724,68.6565
21.7572,3.5745,1.7621,-9.7061,0.0047,0.1118,123.9618
21.7826,2.9999,1.7789,-9.4164,0.0277,0.0005,103.4427
21.8056,2.2769,0.2251,-8.4635,-0.1179,-0.0743,62.6641
21.8300,3.2106,0.7733,-10.0221,-0.0940,0.0527,105.8397
21.8573,2.1500,1.1301,-9.1530,-0.0921,0.1643,75.8015
21.8860,3.8810,1.2737,-9.2440,-0.0531,0.0894,118.3359
21.9114,3.2801,0.3160,-9.1099,-0.0674,0.0653,121.9466
21.9330,3.5243,0.0168,-8.8657,-0.1424,0.2432,124.0992
21.9587,4.7405,-0.0934,-9.1746,-0.1976,0.1736,149.6641
21.9834,2.8563,0.9266,-9.3541,-0.0657,-0.0293,134.7710
22.0082,2.4541,0.6369,-9.0884,-0.0378,0.0306,117.9313
22.0323,3.0574,-0.7494,-8.9543,-0.1031,0.0794,110.7481
22.0573,4.1085,-0.9960,-9.5217,-0.1880,0.0670,129.1756
22.0821,3.4237,-0.7254,-9.0621,-0.2345,-0.0343,65.1145
22.1072,3.5937,1.5826,-9.0118,-0.1460,-0.1286,43.0076
22.1315,3.2322,-0.1269,-9.0261,-0.0886,-0.1095,48.3511
22.1571,2.7725,-0.9553,-8.8969,-0.0590,0.0003,66.8015
22.1820,3.8188,-0.0192,-9.3039,-0.0522,0.0471,118.2061
22.2034,4.7214,0.9697,-9.0142,-0.0832,-0.1005,155.9008
22.2296,2.8754,-0.2011,-9.1219,-0.0657,-0.1255,125.2595
22.2556,2.3415,-1.5897,-8.8226,-0.1001,-0.0133,91.3511
22.2812,3.9528,-0.8547,-9.1459,-0.1249,0.0384,145.4733
22.3193,2.7198,0.8954,-9.5600,-0.0179,-0.0770,167.1679
22.3530,1.4006,-1.4341,-8.9639,-0.0337,0.0015,104.5191
22.3766,3.5171,-2.6121,-9.1506,-0.1719,0.0051,132.6260
22.4017,2.9999,-0.7685,-9.5912,-0.0809,0.0706,157.4198
22.4249,3.2034,1.3384,-9.8617,-0.0212,0.0078,183.5802
22.4498,2.3104,-0.9553,-9.0644,-0.0224,-0.0193,138.3588
22.4736,2.0135,-3.2082,-9.0836,-0.1034,-0.0714,98.4122
22.4984,2.0614,-1.8938,-9.1339,-0.0623,0.0776,130.1069
22.5214,2.2410,-0.1053,-9.2680,0.0061,-0.0399,115.5267
22.5472,0.5387,-0.9242,-9.5648,0.1713,0.0794,3.0763
22.5720,1.5897,-3.1220,-8.6503,0.1607,0.1376,3.6870
22.5960,2.6384,-3.8283,-9.3829,-0.0045,0.1286,47.1145
22.6254,4.4724,-2.6647,-9.9264,-0.0140,0.0170,111.0382
22.6495,2.6671,-1.7717,-9.4260,-0.1027,-0.2165,135.8015
22.6738,0.6153,-2.8706,-8.6119,-0.2063,-0.0079,106.0229
22.6987,2.9090,-3.2896,-9.3302,-0.3951,-0.0393,143.0076
22.7285,1.3431,-2.0806,-9.3948,-0.3937,-0.0041,170.0382
22.7578,-3.5769,-1.6544,-8.2863,-0.3050,0.4888,14.5038
22.7850,0.4453,-1.6376,-9.2249,-0.1350,0.6652,-14.5115
22.8123,5.6790,-1.6831,-9.8402,-0.1901,0.2367,75.0992
22.8374,3.2322,-0.9218,-8.6957,-0.2700,0.0992,97.4427
22.8710,2.0662,-1.0918,-8.7628,-0.2113,0.2428,70.0687
22.8954,2.9497,-3.0526,-9.2751,-0.2923,0.1378,64.5420
22.9207,4.2760,-1.1564,-9.0932,-0.2911,0.0731,125.4427
22.9429,4.1204,-1.1037,-9.2560,-0.4140,-0.1781,148.5191
22.9679,1.3168,-0.9385,-9.0477,-0.3249,-0.0093,106.7786
22.9912,3.0694,-3.3255,-8.9759,-0.4866,-0.1372,104.6641
23.0160,2.8323,-1.5299,-9.5624,-0.5100,-0.1094,91.0534
23.0383,2.5546,0.4022,-9.8354,-0.4562,-0.2328,80.1069
23.0632,1.7861,0.9026,-9.1866,-0.4017,-0.2605,84.1985
23.0854,-0.0096,-0.5100,-9.8019,-0.4117,-0.0568,77.1832
23.1097,-0.1556,-0.3950,-8.5497,-0.2921,0.0298,78.3130
23.1342,0.7135,-0.3304,-9.5577,-0.2323,0.2026,63.3435
23.1587,0.9840,0.8308,-9.7372,-0.1633,0.0890,35.0305
23.1822,1.0343,1.2115,-9.3278,-0.1576,0.1555,54.9618
23.2057,0.6416,0.1269,-8.8418,-0.1058,0.2777,28.6260
23.2308,2.5019,-1.3623,-9.5337,-0.1936,0.3267,42.0763
23.2541,3.9121,0.7183,-10.3837,-0.1857,0.0720,34.2595
23.2782,3.8810,2.0853,-9.7971,-0.1662,-0.1171,49.2290
23.2996,2.0566,0.8452,-9.1770,-0.2273,-0.0384,44.9466
23.3246,0.7901,-1.2905,-8.2624,-0.2097,-0.1005,43.6947
23.3511,1.0750,0.1293,-9.6223,-0.0992,0.0624,25.4046
23.3775,2.5283,0.2897,-9.0333,-0.1392,0.0918,38.3740
23.4051,3.2082,0.6584,-9.6055,-0.1601,-0.1209,19.2901
23.4311,3.0933,0.9792,-10.0389,-0.2074,-0.0191,35.2672
23.4570,1.4269,0.6991,-10.0149,-0.1879,0.1431,67.5420
23.4822,3.1891,-1.0534,-8.0206,-0.1002,0.0820,136.8321
23.5092,0.8284,-2.1332,-10.7883,-0.1043,0.0134,-21.0458
23.5356,1.5562,0.1006,-9.4786,-0.0574,0.0743,-8.4885
23.5623,0.3376,0.9242,-9.3733,0.1436,0.1478,-53.8321
23.5896,2.0590,-0.1915,-10.0437,0.1781,0.3404,-51.7176
23.6159,3.0239,0.7159,-8.9471,0.0837,0.1380,-3.8473
23.6426,2.5666,1.1349,-9.0166,-0.0377,0.0558,18.9771
23.6679,2.3511,1.2953,-9.4715,0.1549,0.0891,14.7710
23.6966,2.4684,0.4118,-9.6606,0.1379,0.0413,-7.6641
23.7235,3.1196,-0.5842,-9.8713,0.1467,0.0357,-15.8244
23.7501,2.5331,0.0431,-9.6199,-0.0064,0.0071,9.6947
23.7762,2.4541,0.9026,-10.1107,0.1399,0.0284,-57.3282
23.8042,2.8371,-0.3879,-10.2448,0.3498,-0.1070,-87.4809
23.8329,2.4469,-0.9744,-9.2895,0.0641,-0.0519,-13.3435
23.8569,0.8475,-0.1867,-9.9503,0.1207,0.1240,-68.3435
23.8841,2.3750,1.2594,-9.9838,0.3965,-0.0436,-73.0763
23.9108,2.7342,0.7398,-10.1610,0.4632,-0.0793,-27.3359
23.9380,5.3941,-0.7254,-8.1427,0.0290,-0.3004,29.9160
23.9640,-0.1556,-2.2577,-10.0820,0.1537,0.1244,-70.6565
23.9902,2.2386,-0.0072,-9.4715,0.2599,0.0064,-126.2366
24.0186,3.6536,1.9704,-9.3661,0.3889,0.0072,16.0076
24.0442,3.6895,-2.3559,-9.9431,-0.0750,-0.5015,21.7634
24.0695,-0.7709,-2.7461,-9.5577,0.0347,-0.0818,-97.0305
24.0925,-0.7111,0.0287,-10.0221,0.2816,-0.1565,-175.1145
24.1196,3.3160,-0.3017,-9.4786,0.3756,-0.9796,-164.1221
24.1459,3.2034,1.1013,-10.0772,0.0319,-0.5959,22.0076
24.1746,-1.5586,-1.4222,-9.3446,0.0646,0.0511,-22.3359
24.2009,-0.2035,-0.2179,-8.7891,0.2742,0.3559,-151.2061
24.2273,3.9217,-1.5323,-9.7947,0.2953,-0.4166,-180.0229
24.2532,2.8299,1.2450,-9.2177,0.0430,-0.2668,-8.6794
24.2800,-0.4118,-1.0295,-9.6127,0.1181,0.1445,-31.7710
24.3071,0.4190,0.7039,-10.5297,0.3415,0.0961,-88.9618
24.3337,3.1627,-2.0470,-9.9383,0.2498,-0.2579,-68.1145
24.3601,1.5562,-2.7126,-9.6989,0.0270,-0.1642,-41.6641
24.3875,0.2705,-0.9361,-9.3278,0.1869,0.1577,-32.8092
24.4143,4.2928,0.5507,-8.8202,0.1948,-0.1661,-63.3282
24.4408,1.0702,-1.9297,-9.4786,0.2454,-0.1375,-95.1603
24.4664,0.6488,-1.5227,-9.3230,0.2887,0.0418,-97.7557
24.4934,0.8835,-1.0702,-9.3374,0.3511,0.2493,-105.3588
24.5208,2.5307,-1.9872,-9.1147,0.3668,0.0711,-115.7481
24.5468,2.1548,-2.8635,-8.9232,0.3267,0.0165,-126.5496
24.5743,2.8611,-0.7757,-9.3685,0.3659,-0.0818,-118.8702
24.6009,2.8994,-0.6991,-9.7612,0.4006,-0.1154,-109.8779
24.6284,1.9417,-3.1795,-8.8921,0.3302,-0.0668,-114.4275
24.6541,1.9345,-3.6703,-9.0022,0.2947,0.0245,-95.8855
24.6792,2.0806,-2.3391,-9.1339,0.2586,0.1325,-117.7634
24.7043,3.0981,-2.7031,-8.4132,0.1919,0.0179,-120.6718
24.7321,2.8563,-2.6552,-8.8729,0.1586,0.0477,-92.9771
24.7589,3.2585,-3.3615,-8.8992,0.1246,0.0451,-47.3511
24.7859,2.3008,-2.6671,-8.7269,0.0950,0.1054,-52.8168
24.8114,2.6049,-1.9249,-8.7460,0.0808,0.0209,-73.4962
24.8386,3.1556,-2.1500,-8.6095,0.0577,0.0918,-55.9237
24.8652,3.6655,-3.9863,-8.4084,-0.0069,0.1157,-51.7099
24.8902,3.9528,-3.4357,-8.9926,-0.1480,0.0504,12.4504
24.9157,3.7852,-1.7071,-9.5936,-0.1025,0.0861,7.2214
24.9428,3.9648,-0.3519,-9.3063,0.0233,0.0121,-8.8092
24.9689,3.3950,-1.3455,-8.4898,0.0125,-0.0104,-16.9084
24.9949,3.7182,-2.6217,-8.9759,-0.0798,0.0080,5.8397
25.0213,3.8762,-1.7885,-9.1195,-0.0465,-0.0394,28.2137
25.0478,2.7749,-1.7909,-8.7939,-0.0417,0.0216,-1.1069
25.0742,2.7342,-1.4150,-8.9160,-0.0064,0.0313,-15.0687
25.1002,3.3758,-1.8627,-8.6215,0.0066,0.0857,-26.9847
25.1277,4.1037,-1.8411,-8.8250,-0.0265,-0.0039,3.4504
25.1559,4.1324,-2.3990,-8.9040,-0.0824,-0.0049,-1.2443
25.1849,3.5841,-0.9744,-8.8729,-0.0575,-0.0434,-1.2748
25.2122,3.7637,-1.2785,-8.8945,0.0046,0.0227,-5.7863
25.2398,3.5626,-1.9441,-8.6957,-0.0168,-0.0210,2.6641
25.2666,4.3742,-1.6879,-9.3230,-0.0117,-0.0426,6.4809
25.2932,3.9672,-1.2354,-9.2440,-0.0041,-0.0707,-1.8473
25.3201,3.0670,-1.1708,-8.3917,0.0265,-0.0350,-4.2366
25.3491,3.9385,-1.8172,-8.9304,0.0281,-0.0165,-3.8626
25.3781,3.7086,-1.5203,-9.1602,0.0446,-0.0413,-0.2061
25.4048,3.7278,-2.1955,-8.4228,0.0003,-0.0753,1.8168
25.4304,3.6296,-1.8603,-8.9112,0.0177,-0.0473,10.6947
25.4570,3.4141,-1.7454,-8.9902,0.0312,-0.0660,6.1221
25.4836,3.5099,-2.1452,-8.7197,0.0211,-0.0565,1.8092
25.5099,3.4309,-1.9944,-8.9423,0.0108,-0.0323,-9.0458
25.5368,4.2976,-2.2290,-8.9783,-0.0065,-0.0357,-0.1603
25.5646,3.6368,-1.7861,-8.8562,-0.0082,-0.0360,9.4962
25.5911,3.1651,-1.7262,-9.0046,-0.0023,-0.0257,0.2748
25.6193,3.2082,-1.6688,-9.0094,0.0041,-0.0133,-11.0534
25.6477,4.2952,-1.7885,-8.8921,0.0045,-0.0586,-6.7328
25.6750,3.7038,-1.7430,-8.8131,0.0213,-0.0540,-7.8321
25.7009,3.2370,-1.6113,-8.7460,0.0367,-0.0466,-2.4198
25.7276,3.1843,-1.7286,-8.7891,0.0269,-0.0094,3.6641
25.7542,3.2992,-2.3990,-8.5976,0.0017,-0.0115,6.7328
25.7829,3.5267,-2.0877,-8.9854,0.0030,-0.0069,6.9847
25.8111,3.6176,-1.7693,-8.7484,0.0398,-0.0411,6.0992
25.8392,2.7749,-2.1835,-8.5066,0.0061,-0.0121,5.3817
25.8684,3.5147,-1.9154,-9.0668,-0.0252,-0.0244,3.3435
25.8944,3.0670,-1.9609,-8.9950,0.0008,-0.0008,-1.4427
25.9206,3.5195,-2.1189,-8.9902,0.0099,0.0113,-7.7939
25.9485,3.4189,-2.2362,-8.8921,-0.0245,0.0126,-1.2519
25.9757,3.5817,-1.5778,-9.1578,-0.0265,-0.0029,1.9695
26.0027,3.4141,-1.4365,-8.9974,0.0238,-0.0228,-3.8473
26.0289,3.5913,-2.0446,-8.8178,0.0253,-0.0412,-8.0840
26.0548,3.6847,-2.4014,-8.9328,0.0038,-0.0306,1.5038
26.0807,3.3016,-2.0063,-8.7628,-0.0055,0.0017,3.3130
26.1070,3.3351,-1.8938,-8.8585,-0.0209,-0.0010,1.8702
26.1336,3.3662,-1.9034,-8.9543,-0.0121,-0.0274,0.7328
26.1604,3.4955,-2.5450,-8.9280,-0.0299,-0.0269,-2.7176
26.1876,3.6152,-1.7933,-8.9208,-0.0302,-0.0328,2.7328
26.2167,3.3615,-0.8092,-8.7867,0.0190,-0.0307,2.9695
26.2446,3.4764,-1.6807,-8.7556,0.0365,-0.0446,-0.1145
26.2726,3.2010,-2.1021,-8.8298,-0.0042,-0.0312,-6.9771
26.3006,3.7948,-1.8028,-8.8921,-0.0278,-0.0790,0.2443
26.3451,3.0574,-1.5945,-9.2177,0.0196,-0.0577,15.5038
26.3734,2.9664,-2.4541,-8.8777,0.0337,-0.0247,8.0687
26.4003,2.9975,-2.4565,-8.7700,0.0205,-0.0107,9.1908
26.4264,2.6145,-2.5211,-8.9423,-0.0087,0.0131,10.7786
26.4589,2.6839,-1.5682,-9.0070,0.0015,0.0157,7.8626
26.4912,3.0047,-1.8723,-8.8969,0.0123,0.0080,13.0229
26.5157,3.3399,-1.9249,-9.1506,0.0545,-0.0117,8.6641
26.5414,4.1899,-2.7031,-9.1554,0.0084,-0.0599,13.2519
26.5670,3.2825,-2.3391,-8.7364,-0.0176,-0.0581,19.8168
26.5917,3.1843,-2.3248,-8.6526,-0.0321,-0.0225,18.7863
26.6180,2.5067,-1.8459,-9.0860,-0.0221,0.0119,14.3206
26.6464,2.8443,-2.0901,-9.0525,0.0196,0.0773,11.4351
26.6687,3.1244,-1.8651,-9.1195,0.0259,0.0541,3.2061
26.6931,3.6536,-1.8627,-9.0501,0.0132,0.0010,4.4580
26.7161,3.1196,-2.4157,-8.9399,-0.0139,-0.0069,8.2443
26.7408,3.1795,-2.3320,-8.7915,-0.0311,-0.0323,7.2290
26.7699,2.7653,-2.1787,-9.0070,-0.0142,-0.0037,-2.6260
26.7953,2.9999,-2.8778,-8.4467,-0.0333,0.0147,4.3664
26.8230,3.2801,-2.2889,-8.8346,-0.0377,-0.0140,9.7634
26.8479,3.3447,-1.6065,-8.6933,-0.0311,-0.0530,3.2595
26.8735,2.8898,-2.0566,-9.1770,-0.0218,-0.0010,-5.0000
26.8969,2.7845,-1.7861,-8.9902,0.0006,0.0082,11.5267
26.9217,2.6791,-2.0949,-8.9567,0.0317,0.0212,7.6565
26.9451,2.8587,-2.7892,-8.8442,-0.0079,0.0398,-5.8779
26.9689,3.2226,-2.2529,-8.9040,-0.0163,0.0338,-7.1374
26.9922,3.6631,-2.6480,-8.9998,-0.0316,0.0019,-2.9618
27.0171,2.9760,-1.8148,-9.1698,-0.0093,-0.0290,7.0305
27.0432,2.8611,-2.0997,-8.8418,0.0015,-0.0109,-4.9542
27.0680,3.1436,-2.1045,-8.9423,-0.0161,-0.0037,2.3969
27.0919,3.2825,-2.5019,-9.0261,-0.0241,0.0022,1.0000
27.1176,3.2226,-1.8818,-9.0214,-0.0082,-0.0292,2.4962
27.1414,3.3974,-1.6544,-8.7484,0.0145,-0.0269,1.2519
27.1673,3.2034,-2.0375,-8.9256,0.0097,-0.0217,3.0076
27.1941,3.4548,-1.7406,-9.0046,0.0193,-0.0161,5.1756
27.2230,3.2202,-2.0566,-9.0525,0.0263,-0.0414,-0.1527
27.2506,3.0287,-2.4995,-8.9112,0.0064,-0.0477,7.1145
27.2772,3.0071,-2.4229,-9.1267,-0.0126,-0.0327,4.8321
27.3042,2.9760,-2.0973,-8.8921,-0.0126,-0.0203,5.6107
27.3302,3.1196,-2.3296,-8.9088,-0.0118,0.0000,-8.1069
27.3565,3.4309,-1.8651,-8.9471,-0.0385,-0.0628,13.5878
27.3825,2.7821,-2.1117,-8.9759,-0.0237,-0.0240,-5.0458
27.4096,2.9185,-2.0806,-8.6598,-0.0337,-0.0448,3.8321
27.4379,2.9928,-1.8316,-8.9830,0.0052,-0.0227,1.1145
27.4640,3.0670,-2.3703,-8.8777,-0.0057,-0.0475,10.3359
27.4901,2.9880,-2.0446,-8.9591,-0.0094,-0.0418,5.9847
27.5164,2.7964,-2.1380,-8.8969,0.0036,-0.0221,-2.4809
27.5438,3.0047,-1.9632,-8.9328,0.0031,-0.0330,5.5420
27.5707,2.7174,-2.6743,-8.8131,0.0041,-0.0043,-2.3969
27.5976,3.0981,-2.2649,-8.9950,-0.0081,-0.0105,6.1603
27.6242,3.0358,-2.0327,-9.2296,0.0061,-0.0095,1.0458
27.6525,2.9233,-2.0782,-9.0166,0.0039,-0.0071,0.6565
27.6801,3.4500,-1.8627,-9.3374,0.0256,-0.0302,4.8397
27.7057,3.0406,-2.3224,-8.8514,0.0058,-0.0230,3.2443
27.7327,2.6767,-2.4421,-8.9256,-0.0196,-0.0001,1.6565
27.7592,2.8659,-2.0782,-8.9998,-0.0112,-0.0235,-4.3511
27.7867,2.6480,-2.1261,-8.8585,-0.0168,-0.0394,5.3511
27.8123,2.6576,-2.2458,-9.1123,-0.0054,-0.0030,-5.7557
27.8409,3.2058,-2.5115,-9.0357,-0.0310,-0.0341,2.5038
27.8669,3.3208,-1.8771,-9.3518,-0.0288,-0.0384,11.4580
27.8937,2.7677,-2.1739,-9.0046,-0.0135,-0.0399,4.3130
27.9203,2.8299,-1.6951,-9.1913,0.0145,-0.0276,3.0458
27.9479,2.5857,-2.2218,-8.8178,0.0057,-0.0136,-1.4122
27.9746,2.8419,-2.1931,-8.9112,-0.0289,-0.0603,6.1756
28.0017,2.8204,-2.2745,-9.2057,0.0048,-0.0334,-6.7405
28.0280,2.8563,-2.2984,-9.0956,0.0010,-0.0196,-9.7481
28.0555,3.2777,-1.8196,-9.0668,-0.0113,-0.0477,3.2748
28.0793,2.6959,-1.9321,-9.0788,-0.0048,-0.0438,7.3206
28.1169,2.8730,-1.7478,-9.1866,0.0228,-0.0170,7.5496
28.1451,2.5738,-1.9944,-8.8801,0.0374,0.0117,6.4427
28.1727,2.7054,-2.1500,-8.9280,0.0220,0.0127,5.1985
28.2014,2.6815,-2.1907,-8.8729,0.0118,-0.0075,5.1908
28.2255,2.6887,-2.2434,-9.1219,0.0029,0.0026,1.7786
28.2502,3.0335,-2.1907,-9.3182,0.0115,0.0132,-0.6107
28.2722,3.2729,-2.2505,-9.0716,0.0113,-0.0247,5.6031
28.2971,2.7701,-2.4517,-9.1722,-0.0015,-0.0185,3.2061
28.3204,2.7892,-2.2386,-8.9687,-0.0187,-0.0260,9.3588
28.3460,2.8252,-2.0614,-9.0501,-0.0114,-0.0266,4.8702
28.3674,2.9592,-1.7717,-9.3278,0.0337,-0.0438,-0.7328
28.3927,2.4541,-2.4421,-9.0214,0.0236,-0.0287,-1.6183
28.4311,2.6983,-2.4493,-8.8681,0.0064,-0.0022,8.2137
28.4554,2.6552,-2.4373,-9.2488,0.0061,-0.0246,7.0916
28.5016,2.6935,-2.2386,-8.8992,-0.0147,-0.0226,1.0229
28.5255,2.7485,-2.1261,-9.0214,-0.0205,0.0145,5.8931
28.5502,2.4995,-1.9321,-9.0477,-0.0010,0.0147,10.9618
28.5754,2.6863,-1.9465,-9.0309,0.0129,0.0140,9.5038
28.5997,2.7007,-2.1356,-8.9232,0.0198,0.0092,5.5420
28.6248,2.6791,-2.2122,-9.0166,0.0003,0.0362,14.5573
28.6467,2.7509,-2.4684,-9.0142,-0.0039,0.0348,8.9542
28.6726,2.7797,-2.4397,-9.1554,0.0005,0.0216,9.5802
28.6985,2.6408,-2.1668,-9.1602,0.0029,-0.0094,16.6336
28.7225,2.7414,-2.2242,-9.1075,0.0057,-0.0091,27.2443
28.7479,2.5905,-2.5139,-9.1842,-0.0071,-0.0202,18.5038
28.7744,2.3343,-2.7845,-9.1339,-0.0292,-0.0101,11.5115
28.7984,2.5426,-2.5857,-8.9639,-0.0531,-0.0298,12.4656
28.8235,2.7916,-2.2098,-9.1913,-0.0322,-0.0108,11.6947
28.8448,2.8802,-2.0279,-8.9352,-0.0369,-0.0445,17.3435
28.8698,2.2170,-2.4565,-9.0405,-0.0440,-0.0163,18.8397
28.8933,2.1835,-2.6624,-8.7747,-0.0437,0.0450,7.0382
28.9187,2.6983,-2.2721,-8.9902,-0.0439,0.0581,18.5267
28.9435,2.4924,-1.9082,-9.1794,-0.0174,0.0375,13.8092
28.9681,2.5187,-1.7382,-8.9878,0.0017,0.0304,6.7328
28.9925,2.7581,-2.5187,-8.9423,-0.0209,0.0532,9.8473
29.0159,2.7054,-3.3447,-9.0860,-0.0582,0.0276,28.8397
29.0419,2.4636,-2.3439,-9.1267,-0.0372,0.0122,16.1832
29.0650,2.7222,-1.4245,-8.9064,-0.0109,-0.0006,26.8702
29.0903,2.4445,-2.3200,-8.6790,-0.0283,0.0011,6.4122
29.1153,2.9257,-2.6959,-9.2680,-0.0340,-0.0013,18.8473
29.1393,2.8946,-2.0494,-9.0285,-0.0424,-0.0592,28.7481
29.1649,2.5809,-1.9896,-9.0573,0.0087,-0.0298,0.2901
29.1865,2.3056,-2.1931,-9.1291,0.0591,-0.0029,-10.3588
29.2115,3.0550,-2.4924,-8.9591,0.0164,-0.0154,-3.2595
29.2342,3.2202,-2.4612,-9.1818,-0.0439,-0.0523,22.4275
29.2590,2.7964,-2.1787,-9.0740,-0.0169,-0.0721,18.1069
29.2841,2.5833,-1.9632,-9.1267,-0.0082,-0.0763,6.4962
29.3094,2.1931,-2.0686,-8.9878,0.0047,-0.0444,6.9160
29.3342,2.2242,-2.8850,-9.1075,-0.0081,-0.0142,17.5038
29.3577,2.6719,-2.9018,-8.7795,-0.0791,-0.0705,35.6565
29.3816,2.0710,-1.8507,-9.3446,-0.0541,-0.0666,23.5038
29.4056,2.1859,-1.9824,-9.0046,-0.0035,-0.0537,5.0153
29.4308,2.3296,-2.4205,-8.8226,0.0008,-0.0233,13.7863
29.4547,1.9393,-3.2322,-9.0046,-0.0086,-0.0059,6.2748
29.4802,1.9058,-2.5474,-8.9304,-0.0136,0.0076,0.0611
29.5034,2.3391,-2.4205,-9.0860,-0.0212,0.0021,6.8244
29.5289,2.4541,-2.4732,-9.1961,-0.0108,-0.0089,5.4962
29.5519,2.1931,-2.2601,-9.1195,-0.0063,-0.0399,-1.4733
29.5748,2.1332,-2.1021,-8.9495,0.0034,-0.0510,3.9237
29.6002,1.8507,-2.2362,-9.2320,0.0139,-0.0399,8.0611
29.6221,1.4365,-2.5522,-9.1243,0.0031,-0.0211,-4.7405
29.6472,2.0351,-2.3774,-9.3972,0.0012,-0.0392,-3.2443
29.6711,2.1380,-2.4948,-9.2727,0.0113,-0.0424,-6.5038
29.6957,2.3583,-2.7174,-9.0836,0.0027,-0.0332,0.4504
29.7197,1.7310,-2.9113,-9.0166,-0.0217,-0.0088,-5.8092
29.7445,2.1069,-2.5522,-8.9280,-0.0427,-0.0260,5.0992
29.7785,2.2649,-2.1189,-9.1195,-0.0121,-0.0367,5.0611
29.8042,2.1620,-2.1237,-9.2488,0.0043,-0.0679,-6.8015
29.8270,2.3391,-2.2218,-9.0621,-0.0071,-0.0964,4.0382
29.8546,2.0614,-2.7749,-9.1004,-0.0189,-0.0739,-1.3817
29.8823,1.9920,-2.4277,-9.1506,-0.0242,-0.0383,-4.3359
29.9100,2.2146,-2.1715,-9.1530,-0.0128,-0.0277,0.7786
29.9365,1.9848,-2.5809,-9.0812,-0.0064,-0.0164,-5.3282
29.9652,2.0830,-2.5235,-9.1123,-0.0441,-0.0176,-0.7634
29.9926,2.0997,-2.2458,-9.2943,-0.0403,-0.0163,-0.9084
30.0198,2.2386,-2.1165,-9.2799,-0.0221,-0.0412,2.1908
30.0489,1.9417,-2.3152,-9.2656,-0.0165,-0.0373,-0.1908
30.0775,1.7957,-1.9944,-9.1602,-0.0533,-0.0686,4.1603
30.1076,1.4581,-2.4134,-8.9328,-0.0469,-0.0555,2.6489
30.1349,1.7119,-2.3990,-8.9591,-0.0550,-0.0329,1.7328
30.1626,1.5083,-1.9920,-9.0692,-0.0353,-0.0249,3.1985
30.1903,1.4940,-1.8172,-9.3302,-0.0133,-0.0231,-4.3893
30.2175,1.9441,-1.9106,-9.2488,-0.0031,-0.0288,-2.4427
30.2463,1.7166,-2.5690,-9.4020,-0.0202,-0.0252,2.2519
30.2752,2.0279,-1.7741,-9.3278,-0.0135,-0.0507,1.5878
30.3035,1.9824,-2.0662,-9.3134,0.0056,-0.0498,1.1221
30.3337,1.6113,-2.4373,-9.4834,-0.0086,-0.0329,-0.2519
30.3641,1.4126,-2.1763,-9.0860,-0.0205,-0.0038,-7.7023
30.3932,1.6400,-1.8411,-9.3637,0.0044,-0.0107,3.9008
30.4202,1.6496,-2.2434,-9.1985,-0.0116,-0.0242,-0.3359
30.4489,1.8244,-2.0877,-9.3182,-0.0124,-0.0084,-4.1908
30.4759,1.7885,-2.1332,-9.2751,-0.0174,-0.0128,-0.1374
30.5027,1.7502,-1.9178,-9.4284,-0.0139,-0.0331,-1.7099
30.5303,1.7502,-2.2649,-9.2081,-0.0367,-0.0418,0.4351
30.5587,1.8268,-2.1811,-9.4212,-0.0365,-0.0332,2.1069
30.5869,1.4437,-2.0997,-9.2177,-0.0203,-0.0066,0.6794
30.6138,1.6640,-1.6807,-9.1530,-0.0048,0.0112,1.6031
30.6411,1.9632,-2.2314,-9.1985,-0.0246,-0.0169,4.3893
30.6671,1.9704,-2.1739,-9.3398,-0.0177,-0.0198,1.1908
30.6940,1.6735,-1.5443,-9.3470,0.0175,-0.0004,-0.9542
30.7131,1.6161,-2.0159,-9.3709,0.0163,-0.0089,-3.0153
30.7325,1.7406,-2.1117,-9.2680,0.0052,-0.0138,-2.3435
30.7513,1.7047,-2.2242,-9.4763,0.0041,-0.0095,-1.7405
30.7706,1.6640,-1.9393,-9.3422,-0.0075,-0.0234,1.4656
30.7890,1.5897,-1.5347,-9.2344,0.0139,-0.0186,4.9389
30.8073,1.5610,-1.7047,-9.2009,0.0196,-0.0192,2.1527
30.8294,1.8292,-2.0183,-9.3877,0.0235,-0.0292,-3.9924
30.8487,1.6951,-2.3990,-9.3781,0.0166,-0.0319,-0.7863
30.8673,1.6903,-2.4277,-9.2177,0.0089,-0.0207,-2.6641
30.8856,1.8292,-2.1045,-9.0956,-0.0168,-0.0506,5.0992
30.9037,1.6233,-2.2841,-8.8921,-0.0296,-0.0418,1.7252
30.9227,1.5706,-1.8387,-9.0309,0.0020,-0.0445,7.3893
30.9414,1.3288,-1.7310,-9.0190,0.0290,-0.0050,-0.1985
30.9596,1.4509,-1.7478,-9.1913,0.0548,0.0117,0.1527
30.9781,1.6688,-1.6233,-9.4499,0.0677,0.0248,-4.8702
30.9963,1.8651,-1.8292,-9.3541,0.0699,0.0070,-3.3206
31.0147,2.0087,-1.7430,-9.6199,0.0573,-0.0073,-3.2824
31.0326,2.0806,-2.0518,-9.7300,0.0582,-0.0122,2.3664
31.0514,1.7669,-1.9680,-9.5074,0.0586,-0.0249,2.0763
31.0709,1.8292,-2.6432,-9.6367,0.0410,-0.0413,2.8931
31.0897,1.3527,-2.9377,-9.6007,0.0040,-0.0436,7.3359
31.1079,1.2091,-2.9401,-9.3446,-0.0186,-0.0218,-0.3740
31.1269,1.2546,-2.2601,-9.1147,-0.0382,-0.0245,0.1679
31.1453,1.3479,-2.0399,-9.3996,-0.0495,-0.0209,0.0763
31.1638,1.3647,-2.0494,-9.1985,-0.0562,-0.0322,2.2290
31.1823,1.6185,-2.0279,-9.4092,-0.0493,-0.0374,1.9008
31.2005,1.4605,-1.9656,-9.1459,-0.0313,-0.0478,-1.4198
31.2189,1.1827,-1.9201,-9.2512,-0.0082,-0.0250,0.0076
31.2367,1.2043,-2.0399,-9.0285,0.0068,-0.0189,-2.5802
31.2550,1.1971,-2.0183,-9.1482,0.0168,0.0033,-2.6718
31.2730,1.3767,-2.2553,-9.1866,0.0370,0.0312,-8.8397
31.2921,1.8986,-2.0949,-9.2009,0.0383,-0.0083,-0.3206
31.3103,1.8244,-2.2865,-9.1674,0.0368,-0.0080,0.7557
31.3286,1.8100,-2.5211,-9.2536,0.0212,0.0083,-0.0305
31.3464,1.7238,-2.1476,-9.2273,0.0159,0.0110,4.5344
31.3647,1.2929,-2.0111,-9.3111,0.0328,0.0376,2.9313
31.3830,1.0870,-2.0255,-9.1913,0.0298,0.0538,-3.4504
31.4019,1.5634,-2.0973,-9.3948,0.0246,0.0666,-6.6183
31.4207,2.0159,-2.1859,-9.5385,0.0212,0.0735,-4.8855
31.4393,2.0710,-2.0351,-9.2129,0.0249,0.0316,-1.2061
31.4598,1.7957,-2.0159,-9.3302,0.0238,0.0177,-0.4504
31.4790,1.8244,-2.1117,-9.4978,0.0301,0.0158,-2.8244
31.5013,1.5682,-2.3750,-9.2177,0.0168,0.0091,-0.4962
31.5257,1.2426,-2.7533,-9.0429,0.0047,0.0351,-1.1298
31.5440,1.5802,-2.2098,-9.2608,0.0010,0.0261,-2.2824
31.5626,2.1213,-2.1548,-9.2249,0.0033,0.0045,0.1069
31.5804,2.0710,-2.2673,-9.2392,-0.0068,-0.0011,1.3740
31.5988,1.9273,-2.0183,-9.3087,0.0098,-0.0192,1.6565
31.6174,1.5490,-2.4565,-9.1530,0.0008,-0.0259,-0.9924
31.6361,1.6448,-2.5833,-9.2273,-0.0043,-0.0156,2.5878
31.6541,1.8004,-2.3439,-9.5002,0.0005,-0.0231,2.7176
31.6730,1.6855,-2.4062,-9.2464,-0.0124,-0.0389,5.4122
31.6911,1.5730,-2.4397,-9.3087,-0.0447,-0.0230,3.2214
31.7099,1.6759,-2.3942,-9.2680,-0.0371,-0.0125,5.0153
31.7277,1.7478,-2.1979,-9.4236,-0.0319,-0.0019,2.6794
31.7466,1.7765,-2.1213,-9.2584,-0.0165,0.0109,-2.9160
31.7652,1.7382,-2.0159,-9.1482,-0.0322,-0.0199,7.2519
31.7831,1.5945,-2.3008,-9.2919,-0.0322,0.0047,1.6107
31.8008,1.9656,-2.2266,-9.3326,-0.0442,-0.0106,-0.6794
31.8196,2.2386,-2.1141,-9.3948,-0.0423,-0.0191,0.9084
31.8384,2.2625,-2.0853,-9.2799,-0.0390,-0.0283,5.5573
31.8572,1.9130,-2.0183,-9.2320,-0.0384,-0.0392,4.2672
31.8751,1.7957,-1.9393,-9.2919,-0.0246,-0.0439,1.4198
31.8936,1.7286,-2.0135,-9.0094,-0.0222,-0.0363,1.6870
31.9114,1.7166,-2.1237,-9.0549,-0.0320,-0.0340,2.7939
31.9294,1.7166,-2.2505,-9.3374,-0.0349,-0.0281,0.8321
31.9470,1.8459,-1.9896,-9.2440,-0.0315,-0.0343,5.0916
31.9657,1.5993,-1.8483,-9.0525,-0.0213,-0.0308,8.5725
31.9838,1.0989,-1.7478,-8.9160,0.0041,0.0103,-0.4351
32.0023,1.3455,-1.8148,-9.1770,0.0166,0.0304,-9.4656
32.0204,2.0614,-1.7430,-9.2703,0.0205,-0.0072,-3.5725
32.0388,1.9944,-1.8316,-9.3877,0.0281,-0.0224,-2.7481
32.0568,2.0518,-1.6975,-9.5289,0.0277,-0.0344,-4.5115
32.0751,2.0758,-1.7047,-9.4643,0.0233,-0.0507,0.4427
32.0932,2.0207,-1.9704,-9.6175,0.0279,-0.0660,0.8168
32.1117,1.7334,-2.1811,-9.5122,0.0000,-0.0749,1.3740
32.1294,1.4700,-2.5379,-9.5289,-0.0055,-0.0953,0.0458
32.1479,1.5826,-2.5450,-9.4619,-0.0284,-0.1083,4.8473
32.1656,1.4198,-2.6217,-9.5481,-0.0554,-0.0939,2.8779
32.1842,1.3408,-2.2003,-9.4691,-0.0453,-0.0850,4.7481
32.2018,1.4126,-2.0973,-9.2177,-0.0617,-0.0855,7.4351
32.2203,0.8835,-2.3535,-8.9423,-0.0743,-0.0695,5.5649
32.2380,1.2115,-2.1548,-9.1602,-0.0725,-0.0312,9.1221
32.2562,1.1612,-1.9345,-9.2344,-0.0681,-0.0015,8.3664
32.2741,1.5179,-1.4461,-9.1842,-0.0742,-0.0017,4.5878
32.2926,1.5275,-1.6161,-9.2895,-0.0554,0.0123,1.2443
32.3105,1.6113,-1.5754,-9.4667,-0.0390,0.0219,2.1832
32.3294,1.7047,-1.4461,-9.2895,-0.0316,0.0107,8.4351
32.3471,1.6161,-1.4485,-9.2680,-0.0213,0.0131,2.7939
32.3657,1.9034,-1.4317,-9.2584,-0.0039,-0.0047,1.4504
32.3835,1.7885,-1.3982,-9.3350,0.0223,-0.0160,-2.0000
32.4019,1.7693,-1.7502,-9.2680,0.0164,-0.0303,-0.1069
32.4201,1.6927,-1.9297,-9.2656,0.0038,-0.0590,-3.6260
32.4381,1.7573,-1.7310,-9.3853,0.0044,-0.0331,-3.7023
32.4562,1.2833,-1.8100,-9.4260,0.0209,-0.0375,-3.7252
32.4742,1.4126,-1.7238,-9.2153,0.0311,-0.0457,0.5878
32.4923,1.2857,-1.7382,-9.2775,0.0396,-0.0492,2.2137
32.5106,1.3767,-2.1261,-9.2584,0.0394,-0.0376,-0.7023
32.5283,1.0582,-2.0590,-9.1842,0.0336,-0.0276,-3.1450
32.5467,0.9816,-1.8435,-9.4834,0.0403,-0.0188,-2.7099
32.5649,1.4054,-1.5754,-9.4691,0.0550,-0.0176,-5.5573
32.5830,1.5586,-1.8387,-9.5265,0.0597,-0.0207,-5.0305
32.6016,1.2953,-2.2841,-9.4643,0.0597,-0.0049,-5.0153
32.6196,1.1349,-2.4876,-9.4355,0.0565,0.0111,-6.4351
32.6381,1.2737,-2.1261,-9.2081,0.0312,0.0050,-1.2901
32.6560,1.3408,-1.9082,-9.2751,0.0124,-0.0230,1.0229
32.6744,1.4676,-1.6759,-9.5984,0.0295,-0.0165,2.3740
32.6925,1.2857,-1.9920,-9.6151,0.0439,-0.0071,-0.2290
32.7107,1.3527,-2.3224,-9.6510,0.0273,-0.0027,-4.7176
32.7286,1.5562,-2.6576,-9.6510,-0.0058,-0.0103,-5.7710
32.7472,1.4485,-2.3439,-9.4906,-0.0297,-0.0114,-5.0382
32.7649,1.1037,-2.1955,-9.4260,-0.0251,-0.0010,-0.0076
32.7833,1.1779,-2.1308,-9.4954,-0.0429,-0.0012,4.7634
