time,acceleration x,acceleration y,acceleration z,gyroscope x,gyroscope y,gyroscope z
0.0127,6.9647,1.1061,-6.3590,-0.0534,-1.2951,-3.8244
0.0256,6.0932,1.4054,-6.2130,-0.0843,-1.4923,-2.4809
0.0391,5.6695,1.6376,-7.2233,-0.1096,-1.6925,-1.1145
0.0524,5.6790,1.9321,-6.2489,-0.1197,-1.8361,-2.2748
0.0655,4.7788,2.7964,-7.5705,-0.1228,-1.9094,-3.5038
0.0866,4.5610,3.2657,-9.4092,-0.1211,-1.9094,-11.2748
0.1001,4.3407,3.0670,-9.6319,-0.0875,-1.7677,-15.7786
0.1195,2.6959,3.0215,-10.1730,-0.0131,-1.4774,-14.4198
0.1331,1.6305,3.0263,-11.3868,0.0819,-0.9228,-7.1985
0.1476,1.4078,2.6288,-13.0771,0.1431,-0.3932,-2.1603
0.1646,2.4325,3.0574,-12.9957,0.1455,0.2057,-0.0840
0.1789,3.1436,3.1651,-11.8657,0.0994,0.4130,-0.1756
0.1921,2.7845,2.4229,-11.0756,0.0434,0.4017,1.5496
0.2057,2.1117,2.7485,-10.6470,-0.0312,0.3758,6.2748
0.2194,2.3152,2.7174,-11.6286,-0.0056,0.6783,10.1145
0.2327,1.4509,3.1484,-12.8593,0.1304,1.4078,17.1298
0.2496,1.4150,3.2920,-12.9287,0.3007,1.9094,25.3511
0.2683,3.3782,3.6272,-12.3230,0.4171,1.9094,19.9466
0.2867,6.9911,3.5314,-9.0214,0.1855,1.9094,-0.2901
0.3055,7.5010,3.4668,-7.4915,-0.0171,1.9094,-15.2366
0.3233,6.5314,1.3455,-5.5138,-0.1043,1.9094,-8.0000
0.3416,5.9185,0.5818,-1.8531,-0.0518,1.4554,-2.5115
0.3611,7.5561,-0.5171,0.6752,0.0839,0.7546,3.4504
0.3794,8.3462,2.3942,0.6129,0.0713,-0.1324,5.2443
0.3989,8.7652,1.5874,-2.7629,-0.0252,-0.9087,5.0763
0.4178,7.8697,0.4908,-5.9568,-0.0880,-1.2079,8.2290
0.4369,7.6902,1.4916,-5.0661,-0.0550,-1.2067,4.9542
0.4563,7.5202,1.7885,-7.9871,-0.1015,-1.2509,3.3969
0.4747,7.4531,2.7054,-6.4811,-0.1333,-1.3182,-2.7099
0.4938,7.4484,2.5187,-7.8410,-0.1702,-1.3777,-6.3817
0.5126,6.4715,2.5355,-8.0709,-0.1430,-1.2943,-8.1527
0.5319,5.4540,2.5355,-8.0230,-0.1255,-1.1960,-6.6641
0.5506,5.0542,2.3463,-8.7125,-0.1160,-1.0871,-4.3053
0.5701,5.0206,2.3391,-8.8011,-0.0717,-0.9224,-3.0000
0.5892,4.6017,2.2625,-9.2943,-0.0631,-0.8635,-0.5115
0.6077,4.2162,3.1771,-9.5553,-0.1113,-0.8459,-0.2061
0.6269,4.3000,3.3088,-10.4124,-0.1284,-0.6637,-3.0611
0.6454,3.6152,2.6719,-10.5225,-0.0890,-0.3257,0.4962
0.6640,3.2058,2.8252,-10.2759,-0.0047,0.0256,5.0916
0.6822,3.6990,2.6863,-10.5321,0.0143,0.2710,5.8092
0.7009,4.0079,2.4612,-9.9407,-0.0047,0.4027,5.1756
0.7203,4.1444,3.0047,-9.2967,0.0172,0.6370,3.3588
0.7387,4.4580,3.3303,-10.6111,0.1330,1.0878,-0.3282
0.7583,4.2808,3.1580,-10.5393,0.1953,1.4884,-4.8550
0.7766,4.8028,2.7557,-9.8521,0.1683,1.5987,-9.6947
0.7955,5.9879,2.6264,-8.9974,0.1062,1.4476,-10.1832
0.8144,6.2345,2.2913,-7.1443,0.0136,1.1972,-8.1985
0.8335,6.4596,1.8890,-4.5873,-0.0126,0.8529,-7.9695
0.8531,7.0390,1.2426,-3.9169,-0.0273,0.4069,-5.8550
0.8717,6.9671,1.8723,-3.0167,-0.0140,-0.0475,-0.8550
0.8907,7.2784,2.4517,-3.6009,0.0006,-0.5265,-0.7328
0.9097,6.6798,1.2402,-4.3503,0.0128,-1.0107,0.0076
0.9284,6.0334,0.4932,-5.7604,-0.0374,-1.4877,6.0534
0.9477,5.6575,1.6257,-6.2728,-0.1053,-1.9094,6.2824
0.9668,5.4923,2.5546,-5.9879,-0.2047,-1.9094,-1.0992
0.9858,2.8922,3.5865,-7.6662,-0.2897,-1.9094,-2.6107
1.0046,1.2522,4.4748,-5.9256,-0.1422,-1.9094,23.8244
1.0223,2.2266,-2.2218,-13.8936,0.6666,-0.0187,42.6641
1.0418,1.4653,2.5594,-14.3413,-0.2614,-0.5744,4.3817
1.0602,2.3511,-0.7566,-13.2974,-0.1129,0.2197,-13.3435
1.0792,2.0087,3.3567,-10.5967,-0.2489,0.3684,-10.9847
1.0979,2.3774,3.1436,-8.3653,-0.1566,-0.0942,-1.3817
1.1167,3.2968,2.4565,-9.3326,-0.1058,0.1031,-4.4733
1.1361,2.0446,2.5522,-10.5872,-0.0847,0.2509,-2.6412
1.1549,2.2434,2.5857,-11.2240,-0.0743,0.5775,-0.7252
1.1744,2.4588,2.8754,-11.1546,-0.0766,0.8148,-5.6260
1.1930,3.8475,3.0550,-10.0102,-0.0481,1.0181,-15.3664
1.2119,3.8834,2.8874,-10.7739,0.0186,1.3287,-25.1221
1.2303,3.5841,3.3662,-10.5967,0.0990,1.7373,-31.2214
1.2494,4.5226,3.4907,-8.3031,0.1574,1.9094,-31.1985
1.2689,4.2521,3.2226,-8.2169,0.1214,1.9094,-16.3130
1.2877,4.6184,2.4493,-5.5354,0.1111,1.9094,-6.8397
1.3072,5.5929,1.0750,-3.0502,0.0633,1.4574,1.7176
1.3250,7.4771,1.3934,0.0455,0.0716,0.5071,3.4046
1.3433,8.0421,2.7270,-0.7877,0.0241,-0.4739,0.1374
1.3618,7.9057,2.2314,-3.4477,-0.0013,-1.0994,-3.1679
1.3810,7.0198,1.3479,-6.4452,-0.0492,-1.3878,-2.7252
1.4004,5.9304,2.2649,-6.5960,-0.1005,-1.6680,0.8092
1.4205,5.4684,2.4110,-6.5242,-0.1273,-1.8945,0.6489
1.4394,4.3527,3.2537,-7.1251,-0.1418,-1.9094,1.1679
1.4582,4.3646,3.5386,-9.9096,-0.1457,-1.9094,-2.8473
1.4780,3.6057,3.7373,-10.8409,-0.0992,-1.7036,-8.9847
1.4965,2.2984,3.6559,-12.6510,0.0096,-0.9305,-4.4809
1.5161,0.7685,3.2370,-13.1561,0.1063,-0.1135,4.1069
1.5343,2.3822,2.9760,-11.4275,0.0944,0.3123,8.1145
1.5532,3.7852,3.2082,-9.7468,0.0453,0.2981,2.7252
1.5720,3.5961,2.6815,-9.7516,0.0166,0.2378,2.5573
1.5912,2.1476,3.2106,-11.7867,-0.0147,0.4362,7.8168
1.6109,1.9441,3.3040,-14.3125,-0.0053,1.2130,16.7634
1.6290,2.9904,3.2968,-14.3580,0.0879,1.9094,13.0305
1.6472,7.3933,3.4596,-11.1139,0.0928,1.9094,-15.7176
1.6657,3.2825,4.5131,-8.5712,0.2498,1.9094,-13.3969
1.6846,4.4772,2.9257,-5.9233,0.2150,1.9094,-4.2672
1.7032,5.2792,1.7358,-3.0263,0.0932,1.9094,5.0916
1.7224,8.7795,-0.0646,1.3312,0.0601,1.1378,-0.2214
1.7412,8.3175,2.1691,0.6512,-0.0301,-0.0849,3.2443
1.7605,8.3725,2.3152,-1.4293,-0.0561,-0.8660,1.2748
1.7795,8.1786,2.0327,-4.8507,-0.0210,-1.0684,0.0763
1.7986,7.3957,2.0159,-6.3590,0.0012,-1.0047,1.2901
1.8174,7.5848,2.3990,-6.3255,-0.0052,-1.0124,-0.8168
1.8357,7.4915,2.0111,-7.4795,-0.0887,-1.2738,-3.6260
1.8550,6.1339,2.3320,-6.5529,-0.1720,-1.5383,-1.4198
1.8738,6.6607,2.8970,-5.7102,-0.1467,-1.7100,-3.1374
1.8933,5.6407,3.3232,-6.4021,-0.1442,-1.9094,-5.3130
1.9124,4.5011,3.1891,-6.4715,-0.1392,-1.9094,-12.5344
1.9311,4.3790,3.1029,-8.8992,-0.1172,-1.9094,-18.6412
1.9496,2.4397,3.5865,-11.0421,-0.0579,-1.6465,-15.2443
1.9672,1.4964,3.2944,-12.6988,0.0752,-0.9499,-4.4504
1.9858,-0.1867,1.8842,-16.9126,0.1649,0.5566,4.7176
2.0046,2.4325,3.6200,-13.0292,0.1339,0.7459,8.5649
2.0236,2.8826,3.9121,-12.1003,-0.0375,0.8092,12.7634
2.0431,2.5259,3.2226,-12.4355,-0.0845,1.2492,18.2672
2.0619,2.2314,3.5123,-9.5720,0.0619,1.9094,23.3053
2.0814,3.8211,4.1180,-9.0046,0.2960,1.9094,19.3359
2.1000,6.4284,3.6895,-6.0142,0.3211,1.9094,5.5802
2.1190,6.3973,2.7509,-5.1068,0.1393,1.9094,3.3893
2.1378,7.1180,1.2306,-2.5379,-0.0132,1.2507,1.4962
2.1571,8.3629,0.0455,-2.1308,-0.0271,0.4964,-2.3664
2.1762,8.0421,2.5211,-1.6305,0.0104,-0.0946,1.5191
2.1951,7.5537,1.9082,-3.0646,0.0293,-0.5783,4.1679
2.2142,7.2616,1.6664,-3.9504,0.0382,-0.9280,7.5496
2.2328,7.8099,0.8715,-5.5043,-0.0022,-1.3003,7.0000
2.2512,6.6870,1.8172,-6.7636,-0.1332,-1.7861,6.4427
2.2688,6.7708,3.2034,-5.6336,-0.1796,-1.9094,-3.2443
2.2876,6.2441,3.0526,-7.4962,-0.2224,-1.9094,-10.9008
2.3062,4.8387,3.3926,-8.9040,-0.2294,-1.9094,-17.1985
2.3257,3.8331,3.6703,-9.0764,-0.1104,-1.9027,-19.4198
2.3447,1.7909,3.1939,-11.3054,0.0255,-1.2603,-10.5802
2.3638,0.7638,2.1811,-13.2974,0.1206,-0.4360,-1.7557
2.3827,0.9313,3.2010,-13.6206,0.1763,0.4186,7.2214
2.4009,2.5139,3.7828,-14.2024,0.0983,0.8484,11.1298
2.4202,2.7557,3.0239,-12.9095,0.0083,1.2862,15.9237
2.4391,2.2242,3.8978,-12.0524,0.1292,1.9094,20.5115
2.4588,3.9887,3.6176,-10.8457,0.2619,1.9094,3.1908
2.4777,6.6463,4.1013,-6.0501,0.3129,1.9094,-6.6565
2.4968,5.3534,1.8244,-6.7995,0.1434,1.9094,2.6107
2.5156,7.5226,0.7159,-1.2163,0.0213,1.5533,-2.5267
2.5339,8.5904,0.4166,0.3591,0.0083,0.5668,-2.5191
2.5521,7.8290,2.0446,-0.5914,-0.0064,-0.3282,1.5725
2.5699,7.6040,1.7382,-2.4397,0.0048,-0.8786,4.6641
2.5877,7.7093,1.3527,-4.5849,0.0163,-1.1641,6.2366
2.6062,7.8769,1.0750,-6.6463,-0.0318,-1.3742,2.9313
2.6246,7.3502,2.2386,-6.6439,-0.1326,-1.6166,-2.5573
2.6432,6.8163,2.3415,-8.0589,-0.1838,-1.8415,-3.7786
2.6616,4.9895,3.3303,-6.2944,-0.2281,-1.9094,-2.8931
2.6974,5.1164,3.2082,-8.2097,-0.1449,-1.8143,-10.9160
2.7160,3.4524,2.6576,-10.0844,-0.0414,-1.4660,-11.2901
2.7355,2.0063,2.6695,-11.4156,0.0627,-0.9732,-4.3893
2.7538,1.7669,2.8276,-11.8250,0.1149,-0.4453,2.4046
2.7728,2.2529,2.9880,-12.1961,0.1109,-0.0228,5.0687
2.7917,2.6408,3.2801,-11.9399,0.0589,0.2285,4.6412
2.8106,3.4548,2.4349,-11.2144,-0.0041,0.4675,3.9847
2.8303,1.9201,3.1268,-11.2647,0.0435,0.9390,10.6489
2.8487,2.8108,2.8228,-12.4068,0.1689,1.7187,13.6718
2.8672,2.7701,3.4836,-12.3637,0.2194,1.9094,15.3969
2.8854,6.4284,3.9672,-9.8234,0.2296,1.9094,-3.5267
2.9044,3.6176,4.6400,-8.9543,0.2313,1.9094,7.4046
2.9228,6.6248,1.2139,-6.5745,0.1508,1.9094,-5.4275
2.9418,9.3182,-0.4908,-0.7446,0.1019,1.6910,-17.6947
2.9609,5.3606,0.3998,0.8308,0.0527,0.7031,-3.6107
2.9802,8.3869,1.4533,1.1875,0.0220,-0.2988,6.5420
2.9995,7.8338,1.1947,-1.4700,-0.0065,-1.0670,8.2748
3.0186,8.0182,1.3024,-4.2832,-0.0357,-1.4568,10.4198
3.0375,7.7812,1.5251,-5.2122,-0.0599,-1.8017,10.8015
3.0559,6.7947,2.0590,-8.4779,-0.2059,-1.9094,6.5802
3.0754,6.4835,2.6025,-8.4707,-0.2500,-1.9094,-2.3893
3.0943,5.4923,3.1196,-9.4858,-0.1945,-1.8801,-10.8931
3.1141,3.5769,3.4285,-10.7739,-0.1828,-1.4817,-5.1450
3.1335,3.2585,3.0981,-11.3605,-0.1168,-0.8770,0.1374
3.1518,3.5267,3.1077,-11.2144,-0.0090,-0.2833,2.2595
3.1703,3.4955,2.6432,-10.7308,0.0596,0.1730,5.8015
3.1882,3.5889,2.6336,-10.0892,0.0779,0.3902,8.6183
3.2074,4.5753,2.3990,-8.9040,0.0774,0.4602,7.3206
3.2256,4.9249,2.2913,-8.1283,0.0786,0.3988,5.1756
3.2437,4.8770,2.3607,-8.5641,0.0698,0.3431,4.4351
3.2632,4.3431,2.6791,-9.6343,0.0873,0.4965,7.3282
3.2818,4.1683,2.7845,-10.4555,0.1600,0.9967,11.1603
3.3012,5.0781,2.9425,-11.2120,0.2361,1.6146,8.4962
3.3372,6.2584,2.4684,-10.2089,0.2093,1.8998,0.0916
3.3606,7.7692,1.3192,-5.2529,-0.0036,1.3053,-9.0534
3.3830,7.1012,1.9585,-3.5721,-0.0314,0.6731,-5.0763
3.4020,7.5298,1.0056,-2.4804,-0.0205,0.1586,-3.0687
3.4204,7.7859,2.4373,-2.4181,0.0054,-0.3330,-1.2977
3.4390,7.9583,1.5275,-4.0366,0.0032,-0.7438,0.0763
3.4573,7.1994,1.1229,-4.8339,-0.0520,-1.1168,5.1603
3.4765,6.8690,1.2857,-5.0039,-0.1354,-1.6362,8.0382
3.4955,6.7756,1.6807,-5.8083,-0.2195,-1.9094,3.5802
3.5141,6.1938,1.6664,-7.5681,-0.2515,-1.9094,-6.3893
3.5329,4.3598,2.8060,-7.3837,-0.2246,-1.9094,-9.9847
3.5507,3.2106,3.0813,-8.7508,-0.1829,-1.9094,-12.9771
3.5688,2.2649,3.2441,-9.8976,-0.0037,-1.9094,-15.4275
3.5830,-4.5705,8.9256,-19.6133,0.6152,0.4772,-1.8779
3.5974,2.1524,-0.5507,-19.6061,-0.0070,0.7163,-2.0687
3.6107,2.2601,2.0399,-14.5208,0.0332,0.1932,3.5649
3.6244,2.4517,2.5690,-10.3525,-0.0830,0.0105,7.2901
3.6384,2.2673,2.5786,-12.6917,-0.1204,0.2851,9.4275
3.6522,2.1069,2.8539,-13.3381,-0.0460,0.9308,11.3206
3.6665,2.7007,3.5434,-13.9175,0.0490,1.7517,10.0153
3.6803,2.7581,3.8427,-12.4115,0.1929,1.9094,8.8168
3.6943,2.3511,4.0725,-10.4459,0.2731,1.9094,10.4733
3.7085,3.8666,2.7916,-9.3733,0.2868,1.9094,6.9237
3.7225,4.7932,2.3200,-7.3957,0.1787,1.9094,3.1374
3.7359,6.3398,2.1237,-7.1922,0.0251,1.9094,-0.9924
3.7499,8.8346,0.6057,-3.2250,-0.0381,1.9094,-11.7099
3.7629,8.1427,0.7781,-0.4549,-0.0094,1.6880,-17.7405
3.7763,6.6272,0.8164,-1.0032,0.0084,1.3026,-11.7634
3.7897,6.1459,0.4429,0.8882,0.0394,0.8066,-2.4885
3.8030,7.3287,1.0056,1.0487,0.0673,0.2404,0.0000
3.8172,8.0756,2.5570,0.3328,0.0614,-0.4282,6.1221
3.8307,8.0278,1.2330,-1.8699,0.0112,-1.0052,8.9389
3.8444,8.2145,0.8260,-3.5099,-0.0231,-1.3584,10.0076
3.8579,7.6902,0.3328,-5.3079,-0.0455,-1.5372,9.9542
3.8723,7.6279,0.4932,-6.2560,-0.0818,-1.6952,7.9542
3.8858,7.2856,1.6089,-6.3686,-0.1077,-1.8328,2.9847
3.8992,7.2161,2.0135,-7.7333,-0.1662,-1.9094,-2.1374
3.9129,7.3574,2.3367,-6.5960,-0.2026,-1.9094,-5.8779
3.9260,6.2369,3.2729,-6.0238,-0.2207,-1.9094,-12.1908
3.9396,5.6527,3.4477,-7.2592,-0.2116,-1.9094,-16.2824
3.9526,4.5226,3.1292,-9.0190,-0.2236,-1.9094,-16.6183
3.9655,3.4405,2.8323,-10.0604,-0.2206,-1.9087,-14.8397
3.9790,2.4756,3.0358,-10.7164,-0.1563,-1.5708,-10.7023
4.0000,2.0518,2.7438,-11.5448,-0.0495,-1.0409,-5.6718
4.0176,1.7885,3.0071,-12.3206,0.0307,-0.2892,4.5115
4.0368,2.4948,3.3112,-12.9790,0.0450,0.2949,8.3511
4.0557,2.6600,2.7246,-12.5839,0.0478,0.8442,12.5191
4.0750,1.9178,3.6655,-12.4259,0.0872,1.4739,20.7252
4.0945,4.2401,3.0670,-12.1218,0.1435,1.9094,5.1908
4.1136,5.7748,3.6966,-9.9479,0.2215,1.9094,-11.3511
4.1336,3.3088,2.7557,-9.4954,0.2553,1.9094,5.3435
4.1532,6.5936,0.6512,-2.3942,0.1895,1.9094,-11.6336
4.1725,7.7716,1.4916,-0.7901,0.1263,1.6012,-13.3511
4.1912,7.5705,0.8619,0.6776,0.0754,0.6992,-2.9466
4.2120,9.6726,1.5203,-0.4022,0.0228,-0.0168,3.0763
4.2308,8.1020,2.0590,-2.1045,0.0003,-0.7410,4.0458
4.2503,7.6926,1.0487,-4.2401,-0.0296,-1.1984,8.5954
4.2712,7.9057,1.1756,-5.9783,-0.0488,-1.4308,4.8015
4.2905,7.6950,1.7526,-6.6152,-0.0635,-1.4381,3.7557
4.3109,6.4907,2.0423,-6.6631,-0.0703,-1.4736,-0.0840
4.3304,7.3334,2.8252,-4.5083,-0.1237,-1.7938,-4.5038
4.3491,5.9687,2.7869,-6.3710,-0.1463,-1.9094,-8.1374
4.3691,4.4604,2.4301,-9.3302,-0.2257,-1.9094,-11.6183
4.3878,3.4117,3.0071,-9.8569,-0.2786,-1.9094,-11.8702
4.4072,2.6240,3.4884,-11.3413,-0.1752,-1.6842,-10.1527
4.4267,1.0271,3.7014,-15.0571,0.1178,-0.1627,-3.3435
4.4459,1.2402,3.1867,-13.2567,0.2002,1.0027,3.9389
4.4656,1.4844,3.0526,-12.7180,0.1885,1.4071,16.1679
4.4861,2.6695,3.3303,-13.2304,0.1259,1.8564,19.1145
4.5058,4.3383,3.2801,-11.3701,0.1256,1.9094,8.6947
4.5253,6.1124,2.9592,-7.9200,0.1745,1.9094,-1.6107
4.5447,4.8411,2.5977,-6.6032,0.1252,1.9094,1.6031
4.5636,6.3614,0.9984,-4.3766,0.0652,1.9094,-7.4046
4.5836,7.2592,0.4597,-1.4485,0.0415,1.3519,-10.6336
4.6035,7.3550,0.5986,-0.7494,0.0382,0.5566,-2.2672
4.6241,7.9009,2.5331,-0.5555,0.0329,-0.2238,3.5267
4.6435,7.5441,2.4086,-2.1213,0.0307,-0.7731,8.5344
4.6627,7.1539,1.2402,-3.7158,0.0515,-1.1897,14.0458
4.6814,7.2688,1.1660,-5.5689,0.0103,-1.5728,13.4962
4.7163,7.3909,1.0702,-8.4563,-0.0825,-1.8081,4.3130
4.7357,6.5841,2.5522,-7.5082,-0.1415,-1.9094,-2.7786
4.7548,6.2560,2.6576,-7.9033,-0.1620,-1.9094,-8.8015
4.7736,4.4125,2.6456,-8.5234,-0.1700,-1.9094,-13.1221
4.7929,3.1508,3.1795,-10.8505,-0.2425,-1.9094,-13.1450
4.8113,1.8938,3.6392,-11.3844,-0.1600,-1.7461,-6.5420
4.8311,-2.3774,2.7845,-19.6133,0.2013,0.7952,-3.8931
4.8502,1.9776,3.9361,-13.2160,0.0667,0.5439,7.7176
4.8692,2.3583,2.7438,-10.3884,-0.0580,0.4867,10.0534
4.8880,3.1747,2.8898,-12.0428,-0.0416,1.0272,10.0534
4.9069,2.7821,3.0742,-12.1961,0.0600,1.8242,9.3359
4.9251,4.8004,3.2753,-10.7236,0.2163,1.9094,-2.4809
4.9431,2.6600,3.4836,-10.2232,0.3037,1.9094,3.6870
4.9612,5.1906,1.9249,-7.6279,0.2188,1.9094,-0.7176
4.9804,8.5904,1.1013,-3.3639,0.0804,1.9094,-24.6031
4.9989,6.2201,1.7358,-3.1220,0.0770,1.5399,-18.2595
5.0186,7.1132,1.3671,-3.5602,0.1105,1.2659,-2.8321
5.0371,7.4986,1.2689,-0.5866,0.1193,0.8338,7.3664
5.0564,7.8961,1.3144,-0.4956,0.1111,0.1201,10.8779
5.0756,9.6175,1.5419,-1.7573,0.0117,-0.7508,5.6489
5.0942,8.0302,0.4884,-4.3431,-0.0931,-1.2868,8.6260
5.1140,7.8913,0.7254,-4.9728,-0.1022,-1.5420,9.9695
5.1325,7.2065,0.4908,-6.8402,-0.0964,-1.6775,6.8779
5.1523,7.6614,2.0877,-6.5936,-0.1049,-1.9094,1.8397
5.1711,7.4172,3.0861,-4.6615,-0.2217,-1.9094,-8.2214
5.1911,5.6743,3.1843,-6.7852,-0.3249,-1.9094,-13.7557
5.2106,4.2521,2.7078,-9.6702,-0.2956,-1.9094,-19.9313
5.2287,1.8124,2.9113,-11.3629,-0.1679,-1.9023,-12.8931
5.2478,0.5315,2.9975,-13.1011,0.0605,-0.7547,-1.9389
5.2655,1.0942,3.0885,-14.4346,0.2242,0.5272,5.2443
5.2840,3.0694,3.4453,-13.2639,0.2139,1.0823,7.0763
5.3036,2.8635,3.1460,-12.1793,0.0442,1.1311,9.9084
5.3223,2.6983,3.0478,-12.1171,-0.0041,1.5085,15.9847
5.3415,3.6966,3.3351,-11.4012,0.1245,1.9094,11.2595
5.3600,5.7126,3.4548,-10.2568,0.2704,1.9094,-4.8244
5.3791,4.7214,2.4804,-8.2552,0.2545,1.9094,-9.2366
5.4004,7.0701,1.0558,-2.4588,0.1838,1.9094,-6.4198
5.4190,7.1347,0.0694,-0.8499,0.0759,1.7167,-1.9160
5.4376,8.2145,0.1652,1.7597,0.0590,0.6054,-1.0382
5.4724,8.4252,2.3894,1.0080,-0.0514,-1.1603,7.4962
5.4914,8.2073,0.8523,-4.5921,-0.0978,-1.6690,7.2901
5.5118,7.4962,1.1372,-5.5522,-0.0469,-1.7159,5.6718
5.5313,7.0916,1.3264,-7.6998,-0.0540,-1.6449,-0.9847
5.5498,7.4891,2.4828,-7.6303,-0.1224,-1.7380,-6.8397
5.5675,6.9911,2.6264,-9.2536,-0.2095,-1.7974,-10.5115
5.5865,5.6599,2.9928,-7.4148,-0.2722,-1.8899,-12.1145
5.6054,4.5873,2.6193,-8.6742,-0.2359,-1.7941,-13.1603
5.6245,3.8906,2.8778,-9.9599,-0.1956,-1.5705,-12.9542
5.6433,3.3662,2.9856,-10.6422,-0.0956,-1.1475,-10.6565
5.6621,2.3487,2.7581,-11.8465,0.0062,-0.5495,-4.7863
5.6808,2.2458,2.7557,-12.1554,0.0528,-0.0082,1.2443
5.7006,2.3822,2.6624,-11.6741,0.0259,0.2942,5.8931
5.7202,2.9784,2.4708,-10.6518,-0.0262,0.4185,11.6107
5.7393,3.3232,3.1795,-10.5345,-0.0265,0.6346,12.9771
5.7592,4.2880,2.4325,-9.5098,0.0132,0.8988,7.0534
5.7781,5.2744,3.1987,-9.3063,0.0799,1.1836,1.6565
5.7969,4.0055,3.4884,-9.7899,0.2930,1.8075,3.0840
5.8162,2.7366,2.9113,-10.5824,0.4531,1.9094,16.0611
5.8354,4.8890,2.0973,-9.7229,0.3310,1.9094,16.7252
5.8548,7.6447,1.6017,-4.9368,0.1611,1.9094,5.2595
5.8730,9.4523,1.1468,-2.3535,0.0436,1.3162,-5.1908
5.8909,7.6830,1.0247,-1.5419,-0.0059,0.5937,-0.8626
5.9101,7.0222,1.1037,-0.8571,-0.0231,-0.2277,4.6260
5.9290,8.1427,2.1428,-2.9616,-0.0336,-0.7433,7.7328
5.9483,7.6638,1.2450,-4.8554,-0.0285,-0.8973,7.3893
5.9672,7.8793,1.1660,-6.3901,-0.0171,-0.9405,4.9847
5.9854,8.0637,1.0080,-7.4101,-0.0333,-0.9784,0.2595
6.0044,7.8578,1.3647,-6.6798,-0.0704,-1.1033,-2.0076
6.0237,7.4986,2.2889,-7.2544,-0.1047,-1.3096,-5.7099
6.0432,7.6207,2.2051,-5.9352,-0.1961,-1.6164,-9.1450
6.0625,6.0980,2.3511,-5.9855,-0.2475,-1.9094,-10.3206
6.0824,4.4915,2.4924,-7.3813,-0.2400,-1.9094,-8.6641
6.1013,3.1412,2.4325,-8.6479,-0.1923,-1.8898,-5.1069
6.1202,2.8970,2.9449,-8.8514,-0.0844,-1.6538,-4.7481
6.1395,2.9305,2.8228,-11.0349,0.0808,-1.0817,-6.4046
6.1583,2.2841,3.1436,-12.9143,0.1654,-0.2992,-4.6565
6.1773,2.0518,2.1883,-13.6900,0.1083,0.2957,-2.1603
6.1954,1.8866,2.5402,-11.7723,-0.0248,0.2855,5.0840
6.2141,1.7047,2.6887,-11.6526,-0.0308,0.6476,9.9389
6.2339,1.8579,2.8132,-12.5983,0.0507,1.4435,14.9160
6.2523,3.9720,2.9592,-12.3996,0.1439,1.9094,6.4809
6.2716,5.1547,3.1388,-10.1897,0.1354,1.9094,-4.9160
6.2903,5.5569,3.1053,-8.6838,0.1821,1.9094,-13.2366
6.3096,4.7573,2.5379,-7.0150,0.1200,1.9094,-9.7481
6.3290,5.6000,1.6305,-4.7884,0.0945,1.9094,-0.3282
6.3479,6.3805,0.3519,-2.5666,0.0992,1.4803,0.5344
6.3677,6.6918,0.8140,-0.2897,0.1224,0.7280,9.4504
6.3871,8.4300,2.1931,1.0032,0.1062,-0.1858,11.5344
6.4068,7.4484,1.1444,-2.0662,0.0185,-1.0487,16.1298
6.4268,7.6902,0.0886,-4.4556,-0.1059,-1.8457,14.5649
6.4461,7.4651,-0.5770,-6.1076,-0.2186,-1.9094,10.1832
6.4653,6.3183,1.7573,-7.1682,-0.2240,-1.9094,0.4656
6.4841,5.5091,2.7054,-8.8945,-0.2250,-1.9094,-10.0076
6.5023,3.9145,3.6081,-9.4643,-0.3106,-1.9094,-13.9618
6.5216,2.5187,3.6033,-10.0341,-0.2018,-1.9094,-13.6870
6.5401,-4.0606,10.2304,-19.6133,0.6859,0.4728,5.0840
6.5589,2.0494,0.2179,-19.4601,-0.2002,1.1388,7.9618
6.5777,4.0917,1.2641,-11.5185,-0.0553,0.3246,8.3511
6.5971,2.8778,2.5905,-12.2535,-0.0481,0.6653,10.1679
6.6163,2.4804,3.3208,-13.2639,0.0641,1.5942,11.0534
6.6353,3.5051,3.5458,-12.8664,0.2113,1.9094,2.6870
6.6551,4.5107,3.6679,-9.5888,0.2991,1.9094,-2.4046
6.6741,4.3263,2.5929,-8.6000,0.2532,1.9094,-3.7099
6.6928,5.9017,0.5986,-6.3805,0.0521,1.9094,-2.8015
6.7126,7.2640,0.0622,-2.3559,0.0073,1.6709,-8.2061
6.7322,7.5896,0.3759,0.2442,0.0190,0.7264,-2.7328
6.7518,8.1930,2.0901,1.1708,0.0191,-0.1890,2.8397
6.7712,7.6160,1.2043,-1.3599,0.0111,-0.9677,8.3817
6.7905,7.5274,0.7374,-3.5434,-0.0333,-1.5098,8.5267
6.8090,7.2496,0.9146,-4.8818,-0.0949,-1.8385,5.3511
6.8267,7.8075,1.6664,-6.6750,-0.1112,-1.9092,-2.7634
6.8456,7.8985,2.4995,-8.6790,-0.1712,-1.9094,-8.5038
6.8646,6.8690,2.5905,-8.3366,-0.1662,-1.7963,-9.6260
6.8831,5.3917,2.6121,-8.7101,-0.1724,-1.5993,-9.6718
6.9025,3.8762,2.6815,-10.0868,-0.1457,-1.3352,-2.6870
6.9213,3.7876,2.6145,-10.2951,-0.0737,-0.8574,0.5420
6.9406,3.6176,3.0478,-11.6262,0.0036,-0.3575,1.4275
6.9599,3.9935,2.2793,-10.9200,0.0325,0.0601,1.9008
6.9788,3.5458,2.1955,-9.7947,0.0262,0.2137,3.3664
6.9981,4.3981,2.1835,-8.9328,0.0205,0.2010,2.2672
7.0179,4.1755,2.2338,-8.5449,0.0334,0.1836,2.8168
7.0373,3.2322,2.5857,-9.5265,0.1395,0.5799,9.5420
7.0559,3.2848,3.5243,-12.3158,0.3352,1.5562,13.2443
7.0757,4.4772,4.2521,-14.9805,0.4587,1.9094,3.6794
7.0949,7.6040,2.5187,-14.7962,0.2482,1.9094,-16.9847
7.1146,5.6790,1.9920,-8.5018,0.1055,1.9094,-15.6565
7.1329,4.8435,-0.1341,-2.1668,0.1182,1.9094,-5.0076
7.1511,6.2848,0.0575,-1.2641,0.0769,1.9094,7.5038
7.1697,6.8139,0.2586,3.3519,0.0887,1.0701,12.8473
7.1890,9.5122,2.1308,3.2489,0.0132,-0.1949,12.6260
7.2076,9.9000,0.7661,0.5291,-0.1149,-1.2901,9.3282
7.2273,9.5624,-0.2777,-2.5211,-0.1080,-1.6622,5.9847
7.2457,7.5346,0.7949,-5.0733,-0.1119,-1.7614,12.5038
7.2649,7.8123,1.2306,-5.1356,-0.1032,-1.9094,11.3740
7.2837,7.6231,2.0997,-6.3111,-0.0718,-1.7990,2.6107
7.3022,8.0948,1.9058,-6.5936,-0.1269,-1.8300,-7.3588
7.3192,7.5441,1.6592,-10.0940,-0.2491,-1.9094,-9.1985
7.3326,6.5146,1.9106,-6.8019,-0.2772,-1.9094,-8.2214
7.3470,4.6495,2.3320,-6.7876,-0.2620,-1.9094,-6.8855
7.3615,4.6376,1.9944,-8.4252,-0.1723,-1.7512,-8.4885
7.3751,3.9600,2.2218,-9.1937,-0.1210,-1.5938,-8.3206
7.3885,3.8427,2.5857,-10.2328,-0.1014,-1.3943,-7.3435
7.4015,3.7086,3.0239,-11.1426,-0.0756,-1.1563,-6.8168
7.4154,3.5171,2.9832,-11.3485,-0.0462,-0.8509,-5.0916
7.4348,3.0765,2.7749,-12.1769,-0.0292,-0.4600,-3.9618
7.4534,2.4948,2.3727,-11.9854,-0.0068,0.0836,1.1221
7.4721,2.0183,2.5857,-12.0811,0.0406,0.6067,8.5420
7.4909,2.7414,2.5618,-12.0500,0.0814,1.0922,11.7786
7.5097,4.6974,2.8299,-11.1019,0.0781,1.4507,5.3893
7.5294,5.2864,3.0335,-10.1682,0.0451,1.7039,-4.6107
7.5479,4.6184,3.2034,-10.3310,0.1308,1.9094,-6.9313
7.5676,5.1787,2.6145,-9.9359,0.1354,1.9094,-9.6183
7.5864,4.9153,1.6424,-6.8929,0.0559,1.9094,-5.9847
7.6054,6.2608,0.9361,-3.5362,0.0394,1.9094,-4.3206
7.6240,6.9073,0.6823,0.8428,0.0473,1.2275,-4.2748
7.6430,7.6088,0.9673,2.9880,-0.0017,0.0638,2.2748
7.6630,8.1092,2.1739,0.4190,-0.0390,-1.0116,8.3359
7.6822,7.8721,0.6201,-3.0885,-0.1128,-1.6023,13.0534
7.7015,7.1371,0.9888,-3.9480,-0.0681,-1.8889,9.9084
7.7192,6.5027,1.4605,-5.4708,-0.0261,-1.9094,7.2061
7.7380,6.8115,2.3703,-8.1355,-0.0316,-1.9094,-1.1069
7.7571,6.6439,3.3208,-6.9480,-0.0607,-1.9094,-4.1679
7.7757,5.1140,2.6360,-9.4619,-0.1491,-1.8672,-7.6336
7.7946,3.5745,2.6743,-10.4411,-0.1804,-1.6296,-2.5878
7.8133,3.4740,2.5618,-11.5496,-0.1400,-1.2404,0.6489
7.8325,2.7078,2.2984,-10.6638,-0.0199,-0.6863,2.5115
7.8526,3.7781,2.3032,-10.4291,0.0037,-0.4353,0.3359
7.8718,3.3112,2.8204,-10.1131,-0.0150,-0.3957,0.0916
7.8908,2.4828,2.3679,-10.8769,-0.0245,-0.2072,2.4504
7.9097,2.7773,2.2984,-11.4371,0.0007,0.1909,1.5496
7.9286,2.7725,2.9473,-11.4826,0.0002,0.5742,0.1450
7.9473,3.5578,2.4421,-12.3158,0.0087,0.9825,-5.8244
7.9669,3.6440,2.4157,-11.5377,0.0382,1.3845,-12.5573
7.9862,3.8690,2.3942,-10.7835,0.0640,1.7166,-17.8702
8.0051,3.8068,3.0694,-9.4571,0.1318,1.9094,-19.4885
8.0228,4.1108,3.3662,-8.6910,0.1822,1.9094,-12.0000
8.0419,5.7102,2.1452,-6.7900,0.1595,1.9094,-2.8015
8.0618,7.4244,0.7661,-1.4605,0.1324,1.5628,-4.1145
8.0807,6.2656,1.4317,-0.9673,0.0656,0.5034,3.7328
8.0996,8.1642,2.2386,-0.4812,0.0105,-0.5281,3.7557
8.1183,7.1491,1.3192,-4.0247,-0.0108,-1.1142,7.2366
8.1373,6.7756,1.5251,-6.3710,0.0096,-1.2311,9.7176
8.1565,6.8809,1.4006,-8.8729,-0.0096,-1.1701,5.6107
8.1765,6.1818,1.9297,-8.4898,-0.0397,-1.1827,5.8092
8.1958,5.8969,2.4277,-7.9296,-0.0775,-1.2351,1.4198
8.2156,5.3199,1.8938,-7.2018,-0.1190,-1.3138,0.2672
8.2348,5.4875,2.4876,-8.1666,-0.1000,-1.3752,-2.6107
8.2536,4.6017,2.5857,-8.6742,-0.1457,-1.5179,-1.2214
8.2728,3.4165,2.3032,-8.8178,-0.1368,-1.5536,1.1298
8.2916,2.9353,2.5355,-10.0197,-0.0853,-1.3912,1.5725
8.3125,2.0830,3.0909,-12.3708,0.0322,-0.7032,4.9695
8.3307,3.6919,1.2713,-10.8409,-0.0332,0.2410,0.0763
8.3485,2.3032,2.1859,-9.4954,-0.0799,0.1304,2.0992
8.3669,3.2753,2.0997,-8.0972,-0.0456,-0.0144,0.5802
8.3985,2.8635,2.3487,-9.0357,0.0022,-0.0184,0.2901
8.4181,2.5881,2.5043,-11.1091,0.0300,0.3026,2.2595
8.4368,2.1668,3.1220,-13.2543,0.0928,0.9405,5.5954
8.4563,3.0071,3.1077,-15.1984,0.0305,1.5916,3.5267
8.4759,4.6519,2.9975,-12.4498,-0.0102,1.9094,-10.9542
8.4953,4.0797,3.2370,-8.7987,0.1116,1.9094,-10.9084
8.5147,3.0047,2.9856,-6.4739,0.1944,1.9094,6.5878
8.5335,4.3096,2.3822,-6.2584,0.2504,1.9094,10.8321
8.5527,6.2656,0.8954,-0.9290,0.2357,1.9094,13.4275
8.5721,7.5417,0.8523,-0.6919,0.1443,1.4124,9.8092
8.5918,9.0142,0.9960,0.7470,0.0226,0.1444,9.5573
8.6108,9.5385,1.5826,-0.1484,-0.0617,-0.9254,5.5649
8.6303,8.0756,0.9888,-0.6297,-0.1263,-1.6222,6.3130
8.6482,6.9073,0.6009,-4.0342,-0.1012,-1.9094,5.9542
8.6671,6.8714,1.4533,-5.4660,-0.0365,-1.9094,3.0458
8.6858,6.1196,1.8076,-8.0924,-0.0947,-1.9094,-1.4427
8.7048,6.4907,2.4541,-9.4906,-0.1626,-1.9094,-4.0992
8.7236,4.8243,2.7078,-8.9878,-0.1721,-1.9094,-8.3817
8.7424,3.0813,2.7078,-9.8545,-0.1561,-1.8850,-3.7405
8.7615,2.8276,2.5355,-10.5489,-0.0973,-1.5638,1.5344
8.7811,2.2122,2.5929,-12.4786,0.0094,-0.9013,5.4198
8.8000,3.0119,2.7007,-13.0412,0.0732,-0.1921,1.4733
8.8192,3.7206,2.9568,-12.5193,0.0734,0.3378,-0.6641
8.8390,2.1021,2.8754,-13.1322,0.0367,0.8388,4.7481
8.8578,3.5051,4.2497,-15.0260,0.1399,1.9094,0.5038
8.8764,3.4548,4.7190,-16.4721,0.3132,1.9094,-3.9008
8.8961,2.4900,3.6320,-13.4794,0.2779,1.9094,2.8092
8.9160,4.4676,1.1564,-6.9025,0.0805,1.9094,-8.3359
8.9346,5.6407,0.0192,2.0925,0.0448,1.9094,-16.7023
8.9525,6.1316,-0.4070,3.4237,0.0601,1.8966,-9.4809
8.9716,7.9871,0.3232,4.8961,0.0279,0.6694,0.8626
8.9907,7.4627,2.7294,4.1946,0.0297,-0.5954,10.1145
9.0096,7.7213,0.8116,1.4964,0.0039,-1.5595,22.3359
9.0286,7.8937,0.5315,-0.5195,-0.0174,-1.9094,21.6336
9.0468,8.5210,0.1748,-4.3838,-0.0792,-1.9094,11.4656
9.0659,6.7828,1.5467,-7.5154,-0.1484,-1.9094,5.8092
9.0849,6.8283,2.8850,-7.2209,-0.1470,-1.9094,-1.2977
9.1047,5.9616,3.0478,-7.5705,-0.2033,-1.9094,-4.9160
9.1238,3.5027,2.1452,-9.6917,-0.2458,-1.9094,-3.3664
9.1434,2.9568,2.2913,-9.4906,-0.2144,-1.9094,0.9924
9.1626,2.3966,2.8036,-10.6398,-0.1264,-1.7497,4.2290
9.1824,2.2051,3.0430,-12.1889,0.0260,-1.0696,6.6412
9.2017,2.3703,1.4748,-19.2230,0.0743,0.4356,-2.2824
9.2204,2.8036,2.2889,-11.7843,0.0113,0.4726,-0.3664
9.2393,2.2410,2.7342,-11.8393,-0.0332,0.7099,3.4809
9.2575,2.6384,2.9497,-12.5648,0.0554,1.4159,1.5344
9.2760,2.9473,2.6767,-12.7180,0.1917,1.9094,1.2061
9.2950,2.7054,2.6025,-12.2894,0.2310,1.9094,5.1603
9.3135,4.6112,2.3248,-9.7659,0.1808,1.9094,3.6870
9.3331,6.3853,1.6257,-5.7772,0.0652,1.9094,-10.5954
9.3518,7.1180,0.7997,-2.1261,0.0686,1.9094,-14.7099
9.3713,5.9185,0.8308,-1.8459,0.0808,1.2838,-1.7481
9.3906,7.4891,0.8140,0.9266,0.0955,0.4193,7.2672
9.4089,7.0629,1.8100,0.5555,0.1210,-0.4100,14.6718
9.4281,7.4579,0.6560,-0.2059,0.1217,-1.2047,20.9389
9.4472,7.5178,0.1293,-5.2720,-0.1300,-1.9094,26.4351
9.4670,6.2034,0.8859,-7.2640,-0.2539,-1.9094,21.4275
9.4860,7.9535,1.4509,-7.8290,-0.1765,-1.9094,1.0611
9.5060,6.7205,2.2146,-10.9487,-0.2335,-1.9094,-6.5725
9.5247,3.7733,2.5067,-10.4459,-0.1875,-1.9094,-7.4046
9.5442,1.3120,2.6001,-11.2073,-0.1615,-1.9094,3.7328
9.5623,0.4381,3.1915,-13.1944,0.1384,-1.0315,24.2061
9.5805,4.2186,0.2203,-19.6133,-0.1327,0.4878,-4.8015
9.5997,3.8427,1.0558,-14.2527,-0.0727,0.2703,-4.3664
9.6183,2.3894,2.2697,-9.3326,-0.0582,0.2347,-1.1221
9.6370,2.8970,1.8627,-9.7636,-0.0267,0.2562,-0.6870
9.6565,2.9975,1.9896,-9.7851,0.0367,0.4702,-1.3511
9.6755,3.0071,2.2817,-10.9319,0.0808,0.7937,-1.0611
9.6954,3.1005,2.6504,-13.4219,0.1185,1.4166,-3.1756
9.7141,3.8068,2.9018,-14.9853,0.0929,1.9094,-8.6031
9.7337,4.1204,3.1173,-11.4108,0.1362,1.9094,-11.7405
9.7530,5.0494,2.6600,-8.0158,0.1936,1.9094,-18.5420
9.7716,4.2665,2.2386,-5.6192,0.2061,1.9094,-7.4656
9.7905,4.6807,1.0439,-1.2234,0.2305,1.9094,10.9084
9.8104,3.4165,0.5363,2.3750,0.2107,1.9094,26.4962
9.8304,8.6215,-0.3472,3.4141,0.0344,0.4038,14.6107
9.8504,13.0676,0.1748,3.2130,-0.1216,-1.1194,0.3435
9.8683,8.5353,1.0032,-1.3264,-0.2447,-1.9094,10.4046
9.8870,7.7644,0.3903,-3.4165,-0.1908,-1.8239,11.1527
9.9060,7.7189,1.3384,-6.8857,-0.0223,-1.6570,7.3359
9.9250,7.9990,2.0303,-7.5848,-0.0149,-1.5483,0.6489
9.9437,7.4699,2.1524,-8.8753,-0.0284,-1.2802,-2.0840
9.9626,8.4228,2.0614,-8.9328,-0.0949,-1.0807,-6.9618
9.9812,6.6248,2.0470,-8.4827,-0.1001,-0.8215,-5.0153
10.0006,7.1036,1.3838,-6.4356,-0.0926,-0.6762,-6.5267
10.0204,6.8498,1.5060,-6.2537,-0.1267,-0.8533,-5.2443
10.0398,5.5234,1.2785,-6.2513,-0.0963,-1.0416,-3.9237
10.0597,5.6838,1.6688,-7.6279,-0.1123,-1.3104,-8.2672
10.0787,7.5872,2.3535,-2.4565,-0.2231,-1.6029,-13.2519
10.0972,4.8243,2.6576,-7.0366,-0.2816,-1.9094,-13.5038
10.1167,2.9137,2.2649,-9.6678,-0.2884,-1.9094,-8.2595
10.1358,0.9792,2.0566,-10.3860,-0.1893,-1.7926,4.8626
10.1549,-1.0534,1.9561,-19.6133,0.1687,0.4532,0.6870
10.1728,1.8818,6.9719,-5.4109,0.0890,0.3925,-5.4885
10.1909,1.8675,3.0095,-10.7212,-0.0260,0.7211,-2.6489
10.2103,2.5762,2.8084,-12.7300,0.0566,1.4809,-0.5496
10.2293,2.9616,2.0183,-12.2703,0.1323,1.9094,-2.9771
10.2481,4.0486,2.4900,-7.4364,0.1837,1.9094,-6.6718
10.2674,4.1875,2.7007,-4.9943,0.2422,1.9094,-4.5878
10.2859,7.3837,1.7549,-3.5793,0.1931,1.7727,-9.9618
10.3055,3.6057,2.5259,-1.6855,0.0942,0.9115,1.6489
10.3249,7.9224,0.7254,-2.5762,0.0009,0.0892,2.5420
10.3442,7.2377,2.2913,-4.2856,0.0015,-0.3925,2.2366
10.3639,7.7452,1.8794,-6.6726,-0.0209,-0.6128,-0.6641
10.3828,7.0653,1.9824,-7.9128,-0.0276,-0.5549,-0.7710
10.4036,6.3231,1.5443,-7.2305,-0.0189,-0.5288,2.9924
10.4239,6.0334,1.7669,-5.4109,-0.0139,-0.8221,7.7710
10.4441,6.0861,1.4676,-5.9831,-0.0805,-1.3134,5.0305
10.4662,6.3734,1.8531,-6.8761,-0.0604,-1.5177,-0.7023
10.4857,5.5498,2.5498,-7.7979,-0.1233,-1.7193,-6.3893
10.5034,3.9265,2.5474,-9.3230,-0.1887,-1.8607,-5.4580
10.5231,2.7222,2.6360,-10.2999,-0.2342,-1.8842,-0.4809
10.5421,2.3296,2.5355,-10.7643,-0.1292,-1.4338,1.9542
10.5608,-0.3472,4.2114,-19.6133,0.1329,0.4358,0.3435
10.5797,3.3279,3.4333,-11.0612,0.0148,0.4070,-1.8397
10.5993,2.0016,3.1292,-9.6534,0.0071,0.6555,1.8779
10.6201,2.6671,3.3016,-12.5384,0.1216,1.4908,3.8397
10.6400,2.6719,2.4636,-14.0133,0.2509,1.9094,4.3893
10.6603,3.5219,3.3351,-12.1602,0.2451,1.9094,6.6412
10.6804,4.1252,2.6384,-8.5305,0.2400,1.9094,7.0916
10.7003,6.1938,1.7765,-3.6536,0.1917,1.9094,1.9389
10.7202,4.8100,1.3647,-3.5243,0.1516,1.9094,15.2824
10.7414,6.3183,0.5387,1.0199,0.1086,1.3633,18.6031
10.7583,8.5928,1.1947,-0.0048,0.0603,0.3931,17.9160
10.7724,10.1155,0.9601,-0.9912,-0.0040,-0.2927,10.8321
10.7863,10.7595,1.0223,-1.7262,-0.0657,-0.8199,2.7252
10.8001,9.2129,1.4102,-3.6559,-0.0989,-1.1172,-0.0763
10.8143,7.4986,0.7805,-5.0829,-0.1295,-1.2858,1.1221
10.8277,7.7045,1.0319,-4.6017,-0.0879,-1.2718,3.5267
10.8417,6.7756,1.1396,-5.2002,-0.0929,-1.3555,9.4122
10.8565,7.5106,1.5850,-5.9065,-0.0804,-1.4848,9.0763
10.8775,7.8673,1.1372,-6.3686,-0.0567,-1.5749,-3.3664
10.8961,8.4539,1.5155,-6.4548,-0.1231,-1.8437,-9.1069
10.9155,6.2297,2.4062,-8.0373,-0.1792,-1.9094,-7.9771
10.9350,6.0980,2.1763,-8.4874,-0.3220,-1.9094,-11.6947
10.9538,4.1515,2.6217,-8.7436,-0.2588,-1.9094,-13.0305
10.9734,2.2889,2.5809,-10.2041,-0.1957,-1.8108,-5.1756
10.9918,1.4485,2.9305,-13.0292,-0.0590,-0.9693,0.0992
11.0112,2.3679,3.2370,-15.9023,0.0904,0.3808,3.8779
11.0294,1.4557,2.7845,-15.3684,0.1513,1.4612,9.6947
11.0482,3.8188,3.2465,-14.3149,0.1836,1.9094,3.6183
11.0675,3.7134,3.6751,-13.0388,0.2496,1.9094,-3.7099
11.0871,4.8267,2.8922,-9.9144,0.2952,1.9094,-5.8015
11.1066,5.5833,2.0566,-4.7836,0.2541,1.9094,5.4275
11.1261,6.3422,0.9840,-1.2761,0.2042,1.9094,10.3282
11.1476,6.8426,-0.1987,2.8156,0.1399,1.5529,8.1298
11.1676,9.9288,1.9848,4.5203,0.0246,-0.2071,7.2519
11.1863,9.5481,0.6536,1.0870,-0.1370,-1.5754,6.5573
11.2047,7.5681,0.2801,-1.2019,-0.1917,-1.9094,10.9237
11.2237,6.9121,0.5076,-3.6224,-0.1375,-1.9094,10.0687
11.2420,6.7086,1.5131,-6.0071,-0.0830,-1.9094,0.6794
11.2604,6.9887,2.2577,-6.7157,-0.1164,-1.9094,-6.7176
11.2805,5.2553,2.5043,-8.5688,-0.2704,-1.9094,-7.4427
11.2990,4.4293,2.6360,-7.7596,-0.4027,-1.9094,-10.4885
11.3181,2.4972,2.7461,-10.8960,-0.2863,-1.9094,-8.7634
11.3371,-0.0239,4.5586,-10.5560,0.3363,-0.4790,19.2977
11.3559,2.0207,-0.5602,-19.5846,-0.0635,0.5257,7.7481
11.3748,5.6024,9.3589,1.4581,0.1200,0.0364,-5.3588
11.3973,2.0399,1.9848,-9.5217,-0.0670,0.0135,0.8550
11.4194,2.3415,2.2984,-11.6933,0.0650,0.8603,3.8473
11.4383,2.8371,2.9233,-12.9263,0.1857,1.7321,-1.4809
11.4574,3.5314,2.3727,-13.0269,0.2359,1.9094,-4.0382
11.4761,3.8523,3.7206,-12.0907,0.2572,1.9094,-4.0916
11.4952,5.3247,3.4189,-8.6862,0.2588,1.9094,-5.9008
11.5136,3.1436,3.4764,-6.6439,0.1943,1.9094,1.0458
11.5338,4.8291,1.2498,-9.5577,0.0598,1.9094,0.7863
11.5521,8.0182,-0.5315,1.5083,0.0257,1.9094,-4.9313
11.5708,8.1882,-0.9505,5.6192,-0.0127,1.2615,-3.9695
11.5886,8.6000,1.2163,6.4787,-0.0534,-0.2699,4.3435
11.6069,7.7644,1.5227,3.6272,-0.0353,-1.3296,16.5267
11.6258,6.7995,0.4908,-0.8452,-0.0580,-1.9094,25.6031
11.6442,6.9959,0.6369,-4.2090,-0.0076,-1.9094,22.6718
11.6635,10.0341,-0.0599,-6.2010,-0.0374,-1.9094,2.1603
11.6821,7.3406,2.0494,-10.4100,-0.1087,-1.9094,-5.1832
11.7011,6.7205,2.2075,-10.2328,-0.1566,-1.9094,-8.2672
11.7200,6.8666,2.6911,-11.8800,-0.1975,-1.7648,-9.5496
11.7387,4.2114,2.4134,-13.4913,-0.1480,-1.4022,-7.2061
11.7577,4.7166,1.8794,-10.9894,-0.1760,-1.2240,-6.3740
11.7766,3.6583,2.1715,-8.7724,-0.1634,-1.0446,-3.1527
11.7956,4.0055,1.8771,-9.3685,-0.0994,-0.9007,0.3130
11.8140,3.9217,2.1763,-9.3781,-0.0516,-0.7051,1.5267
11.8331,4.0558,2.8156,-10.9463,0.0135,-0.3235,0.9389
11.8519,3.5506,2.2721,-12.7108,0.0425,0.2957,3.7023
11.8709,2.9688,2.8850,-13.2328,0.0867,1.0312,7.2748
11.8887,4.3838,2.7940,-14.3892,0.1265,1.9094,2.7710
11.9066,5.1930,3.3423,-12.0596,0.2172,1.9094,-5.2366
11.9255,5.2409,2.6600,-9.8234,0.2488,1.9094,-4.9847
11.9437,4.1061,1.7717,-7.1706,0.3098,1.9094,7.8092
11.9627,6.0454,0.8715,-2.4948,0.2423,1.9094,9.5344
11.9820,7.3885,0.6680,-0.2753,0.1705,1.9094,4.9924
12.0009,8.8729,0.4429,5.1140,0.0484,0.9330,5.8397
12.0201,9.7755,1.1636,5.2122,-0.0327,-0.6268,9.1450
12.0385,8.1858,1.5203,0.7230,-0.0751,-1.6942,17.5649
12.0573,8.1618,0.0646,-3.2178,-0.1847,-1.9094,16.4885
12.0762,8.7795,0.2514,-5.0661,-0.1332,-1.9094,7.4885
12.0951,7.2161,1.1181,-6.4667,-0.1100,-1.9094,1.5878
12.1139,7.6926,2.1045,-7.6112,-0.0899,-1.9094,-5.0534
12.1327,6.8307,2.0183,-7.4651,-0.1883,-1.9094,-6.4656
12.1516,4.4388,2.1284,-7.9152,-0.2163,-1.9094,-3.8626
12.1704,3.8020,1.5586,-9.0261,-0.2041,-1.9094,-5.6412
12.1888,5.5354,2.6097,-6.9528,-0.1688,-1.8168,-7.5725
12.2073,3.8283,2.8611,-10.5943,-0.1507,-1.5867,-8.2137
12.2256,2.1883,2.8802,-11.5233,-0.1267,-1.2613,-0.8015
12.2437,1.2689,3.0358,-13.5057,0.0439,-0.2897,7.6183
12.2622,2.5762,2.2865,-11.7412,0.0554,0.7029,3.2214
12.2802,3.4117,2.9281,-12.9287,0.0926,1.2428,-5.3130
12.2987,4.2808,2.3032,-13.7427,0.0843,1.7909,-9.2824
12.3275,2.9090,2.4205,-10.7619,0.2226,1.9094,0.4885
12.3461,2.8204,2.6121,-8.9543,0.3240,1.9094,5.9008
12.3652,4.8746,1.8100,-8.3629,0.3095,1.9094,2.6107
12.3837,5.7078,1.5251,-3.2010,0.2359,1.9094,5.7634
12.4034,6.9743,0.0263,-1.0774,0.1329,1.8947,1.2366
12.4217,9.5481,0.0479,1.3886,0.0072,0.5990,-2.0534
12.4401,9.1387,1.7717,2.5163,-0.0444,-0.5247,-2.3435
12.4591,7.9128,0.7422,-0.8212,-0.1123,-1.3618,7.3282
12.4780,6.2513,0.6800,-1.0487,-0.2005,-1.9094,15.7023
12.4968,6.9264,1.6640,-0.4022,-0.2070,-1.9094,14.2214
12.5155,6.4955,0.9385,-5.6958,-0.2849,-1.9094,2.5115
12.5341,4.3838,2.0327,-8.4300,-0.4614,-1.9094,-8.9618
12.5534,2.0207,4.1922,-5.5905,-0.6264,-1.9094,-9.3969
12.5720,-1.5514,3.9935,-16.8552,1.5101,0.2119,39.2290
12.5896,1.1971,-0.7901,-19.6133,0.3665,0.0373,36.5115
12.6085,7.2951,1.1013,-17.8584,-0.6478,0.6998,-32.5344
12.6270,5.5713,-0.2131,-8.1217,-0.0104,1.4224,-2.6183
12.6460,0.5387,1.9752,-18.7298,-0.4247,0.8652,3.4351
12.6650,2.6193,2.3080,-7.8697,-0.0590,0.8100,2.4427
12.6839,4.3551,1.9632,-8.8921,0.0561,0.8540,-1.5420
12.7027,3.5099,2.2338,-9.2296,0.0893,0.8293,0.2977
12.7222,4.6735,2.5929,-11.2934,0.0892,0.9795,-3.3817
12.7412,4.7525,2.8539,-11.3653,0.0508,1.3384,-4.2748
12.7599,4.2329,2.5833,-11.7675,0.0973,1.9094,-6.0534
12.7794,5.6024,1.8507,-9.8737,0.1431,1.9094,-11.9237
12.7981,6.1100,2.5857,-7.8554,0.1761,1.9094,-18.3053
12.8171,5.4133,2.4948,-4.6376,0.1657,1.9094,-12.1527
12.8406,5.2074,1.0295,-2.2146,0.0802,1.6836,-1.1679
12.8655,8.3606,1.7789,-0.2203,-0.0254,0.1767,1.1145
12.8851,8.4372,1.7645,-1.8004,-0.0257,-0.4452,2.7634
12.9028,8.5090,1.9201,-3.8427,0.0145,-0.5907,2.7634
12.9218,8.2624,1.4198,-5.2936,0.0378,-0.6216,4.2672
12.9407,7.7572,1.3695,-6.2513,0.0196,-0.6973,7.4351
12.9598,8.3127,1.7741,-6.0525,-0.0322,-0.8508,6.3969
12.9787,8.0325,1.8268,-5.7174,-0.0594,-1.0718,4.8015
12.9979,6.9025,1.2617,-5.1164,-0.0855,-1.3565,6.8702
13.0168,6.0837,1.6089,-4.6950,-0.0787,-1.6693,10.0916
13.0366,6.3183,2.5163,-5.3606,-0.0428,-1.8317,6.0611
13.0556,6.0525,1.8028,-8.1810,-0.0848,-1.9094,1.8702
13.0742,4.6112,2.5833,-8.0948,-0.1572,-1.9094,-2.2290
13.0931,3.7302,1.9297,-11.7986,-0.1079,-1.7423,-5.4427
13.1117,3.0263,2.6336,-11.9926,-0.0256,-1.1022,-6.2901
13.1305,3.0502,3.4907,-14.5783,0.0617,-0.0977,-1.0534
13.1503,4.2736,2.9664,-17.8081,0.0908,1.2308,-4.2519
13.1693,4.4580,3.8499,-19.6133,0.0984,1.9094,-19.1756
13.1884,3.9337,5.6168,-19.0004,0.2324,1.9094,-22.6565
13.2067,-3.3734,4.8530,-16.5487,0.2348,1.9094,-11.2977
13.2247,-4.6759,2.7054,-3.0502,-0.2003,1.9094,9.9771
13.2430,1.2761,-3.5578,5.0829,-0.7272,1.9094,-52.0840
13.2614,5.8059,-2.1883,19.6127,-0.3795,1.9094,-40.1069
13.2810,2.7653,1.2522,11.5688,-0.1480,-0.5155,7.0611
13.3000,4.6064,1.9441,9.5864,-0.0857,-1.9094,42.8015
13.3191,5.0566,1.0582,5.8706,0.1717,-1.9094,60.4656
13.3382,8.9591,0.5938,2.8706,0.4023,-1.9094,45.2061
13.3585,9.1722,0.3496,-2.0303,0.3408,-1.9094,14.3435
13.3775,6.9025,1.3838,-15.1290,0.0850,-1.9094,6.5954
13.3964,6.2177,2.2553,-12.1961,-0.0685,-1.9094,4.6336
13.4156,5.2122,1.4796,-10.3908,-0.0096,-1.9094,2.6489
13.4345,4.6376,1.4222,-8.7388,0.0048,-1.8196,-3.2366
13.4535,5.7054,2.2529,-9.4212,-0.0474,-1.7091,-7.4580
13.4724,5.8538,2.8371,-10.8098,-0.1286,-1.5612,-8.4198
13.4908,4.6663,3.0287,-10.8816,-0.2115,-1.3312,-1.7634
13.5093,3.7062,2.4253,-11.2073,-0.1074,-0.7191,3.0840
13.5269,3.8188,2.1739,-13.4075,0.0716,0.2457,5.1298
13.5459,2.9736,2.7988,-14.5951,0.1534,1.2525,6.1298
13.5646,17.1928,2.5474,-18.8424,0.1014,1.9094,-21.5573
13.5834,-2.3343,6.1555,-11.9255,0.4789,1.9094,-3.5496
13.6022,-4.2593,3.3806,-15.7634,0.4530,1.9094,28.8321
13.6207,8.3007,-2.1045,0.6632,-0.1016,1.9094,-9.3817
13.6399,7.1371,-0.2658,11.4012,-0.2692,1.6625,-15.5496
13.6582,8.4755,-0.3472,6.0501,-0.1721,0.1056,-10.9924
13.6773,7.0054,2.2338,1.1684,-0.0306,-0.4783,6.4885
13.6962,6.9887,0.9337,-0.2442,0.1167,-0.7341,17.7252
13.7153,7.7357,0.9170,-0.0263,0.2149,-1.2049,23.1527
13.7340,9.1267,0.0718,-1.4269,0.2383,-1.9094,15.2137
13.7529,11.2240,-0.1101,-1.9393,0.1542,-1.9094,-10.1756
13.7715,7.4460,0.6033,-11.4371,-0.0304,-1.9094,-20.1374
13.7901,6.4931,1.8316,-9.0573,-0.1806,-1.9094,-22.2595
13.8084,5.1643,3.4069,-7.9200,-0.1798,-1.9094,-6.0992
13.8273,3.4357,2.5139,-5.4109,-0.4936,-1.9094,-3.2672
13.8453,3.4022,2.8204,-7.6519,-0.3661,-1.9094,-10.4351
13.8643,-7.8793,12.3541,-19.6133,0.8002,-0.2648,20.2443
13.8836,1.7717,1.6281,-19.6133,-0.3287,0.5938,-0.2901
13.9026,6.9815,-0.4741,-4.5975,-0.0639,1.6332,1.3893
13.9208,1.0965,3.2753,-9.4571,0.0757,1.5200,-3.1985
13.9397,4.5274,2.9281,-13.7164,0.1436,1.9094,-6.0458
13.9588,3.2848,3.2729,-13.5464,0.2432,1.9094,-2.9771
13.9777,3.0646,3.2848,-10.0844,0.3825,1.9094,0.7634
13.9972,3.7589,2.1045,-7.7237,0.3351,1.9094,7.5267
14.0159,2.9688,1.0558,-1.1875,0.1312,1.9094,3.8550
14.0351,6.3470,-0.9553,9.4164,-0.1774,1.9094,-4.1374
14.0538,9.0190,-0.5602,9.6391,-0.1470,-0.0639,-5.6947
14.0725,7.4460,2.4756,2.9568,-0.1061,-1.0947,6.9237
14.0912,7.7309,1.9489,-1.2426,-0.0462,-1.4152,16.2290
14.1101,7.9535,-0.1125,-4.1180,-0.0117,-1.4905,23.3511
14.1280,8.4898,-0.0359,-4.3622,0.0117,-1.6709,15.7634
14.1467,10.3932,-0.1173,-5.9759,0.0116,-1.9094,-6.1527
14.1644,8.5473,1.5012,-7.9464,-0.0828,-1.9094,-15.3282
14.1829,6.7660,2.2098,-8.1427,-0.1960,-1.9094,-12.9313
14.1972,7.5920,1.9992,-7.4172,-0.1435,-1.6276,-9.8244
14.2109,4.5586,2.3056,-6.5098,-0.2266,-1.7610,1.1985
14.2252,5.4947,1.3958,-7.4675,-0.1581,-1.7220,1.7405
14.2389,5.6096,2.0063,-6.6248,-0.1113,-1.6586,-1.8321
14.2527,4.5250,1.8603,-8.5808,-0.1424,-1.6937,-3.2290
14.2669,4.6878,2.3535,-8.2983,-0.1593,-1.6920,-2.9466
14.2809,4.1755,2.4110,-10.0916,-0.1409,-1.5004,-3.7939
14.2949,4.1180,2.8683,-12.1745,-0.0861,-1.0879,-3.6183
14.3093,3.9025,2.2984,-13.8409,-0.0347,-0.4591,-3.2901
14.3237,3.3471,2.6528,-15.7802,0.0311,0.5515,-3.0458
14.3378,4.9991,2.9066,-16.4170,0.0917,1.4863,-8.7710
14.3520,5.3223,3.8858,-15.7491,0.1288,1.9094,-13.7023
14.3651,4.8746,4.1324,-10.8745,0.1715,1.9094,-16.0611
14.3792,2.6624,2.4756,-13.1226,0.1573,1.9094,-11.8626
14.3952,3.0933,1.1995,-6.5338,0.1184,1.9094,-3.2748
14.4132,4.5610,0.6967,-3.3878,0.0283,1.9094,-1.9313
14.4323,5.6336,0.5746,1.1756,0.0769,1.9094,-0.8779
14.4509,5.9759,0.7709,2.4804,0.1476,1.4616,7.2748
14.4698,8.7101,1.8172,4.1061,0.0314,0.0610,11.4656
14.4886,9.5577,1.6544,1.8340,-0.0739,-1.2518,10.8855
14.5074,8.4827,0.1867,-1.5730,-0.1872,-1.9094,13.0992
14.5263,7.1635,-0.5195,-2.0111,-0.1377,-1.9094,8.3053
14.5450,6.9121,0.4166,-5.2218,-0.0297,-1.9094,-2.9389
14.5646,5.2672,1.7142,-3.2585,-0.0052,-1.9094,-13.3053
14.5834,5.8347,3.1580,-10.5967,-0.1265,-1.9094,-15.6565
14.6031,3.0287,3.9289,-9.5170,-0.2417,-1.9094,-12.5496
14.6216,3.5482,2.9042,-11.8178,-0.2827,-1.8390,-11.4504
14.6403,1.6855,2.5857,-14.7243,-0.1202,-0.7429,-3.5802
14.6580,3.3303,2.1261,-14.4706,0.0467,0.4742,-1.9924
14.6763,5.1092,1.7813,-13.4578,0.0481,1.1148,-13.2595
14.6949,3.2633,3.7972,-11.9375,0.0365,1.5531,-6.4733
14.7139,2.5355,3.6871,-11.8393,0.0486,1.9094,-0.3206
14.7326,4.8339,2.0590,-9.0309,0.0651,1.9094,-4.0916
14.7517,4.8554,1.9225,-9.4834,0.0602,1.9094,-9.5344
14.7703,6.5074,1.2186,-4.2689,0.1137,1.9094,-16.7099
14.7894,5.3079,2.5977,-2.7964,0.1407,1.8111,-3.9695
14.8080,7.3047,1.4341,0.2490,0.1499,1.1862,8.4885
14.8271,7.3310,0.6393,-1.6664,0.2146,0.5327,18.6412
14.8462,8.8992,2.0734,0.2610,0.1773,-0.2335,15.8931
14.8648,9.7636,0.2466,-3.4381,-0.0417,-1.1655,10.2901
14.8838,8.9376,-0.0048,-4.9392,-0.2629,-1.8269,7.1603
14.9024,8.5329,0.9122,-4.3000,-0.1664,-1.9094,-4.4504
14.9206,6.1100,2.5067,-5.3558,-0.0611,-1.8824,-7.4198
14.9387,5.5593,3.1005,-7.3191,0.0191,-1.5855,1.3359
14.9567,6.2417,2.0135,-10.2328,-0.0232,-1.4070,-1.3893
14.9749,5.3319,2.5953,-12.3182,-0.1027,-1.3766,-3.8779
14.9938,5.4803,2.4684,-10.6231,-0.1321,-0.9982,-3.9618
15.0122,4.4987,2.2984,-11.9088,-0.0843,-0.3562,-4.3511
15.0315,4.2234,2.3894,-10.9678,0.0016,0.3209,-2.1908
15.0499,5.4947,2.1308,-9.3661,0.0480,0.5703,-5.3664
15.0690,5.6336,1.9561,-8.0972,0.0228,0.4391,-6.9389
15.0876,5.1284,2.2434,-7.7285,-0.0216,0.1865,-7.2214
15.1062,5.7389,2.0973,-7.1730,-0.0497,-0.0260,-8.4733
15.1254,5.0925,1.8028,-6.7564,-0.0320,-0.1808,-6.5802
15.1441,4.8890,2.4277,-6.8354,-0.0267,-0.3830,-3.3664
15.1635,5.0182,2.0997,-8.5114,-0.0549,-0.5032,-2.2214
15.1818,4.8698,2.4684,-10.0149,-0.0713,-0.4326,-2.2214
15.2004,4.4915,2.4181,-10.6686,-0.0491,-0.1004,0.6870
15.2187,4.7621,2.2697,-10.2280,-0.0044,0.2500,-1.8779
15.2373,4.7932,2.5474,-9.0716,-0.0074,0.3366,0.1527
15.2558,5.3343,2.5043,-8.9280,-0.0214,0.3737,-0.5802
15.2735,5.2816,2.7198,-8.6910,-0.0172,0.4826,0.4580
15.2923,5.0087,2.7054,-9.3182,-0.0434,0.5811,2.0305
15.3113,4.7908,1.9920,-8.2145,0.0295,0.6808,5.8092
15.3302,4.9057,2.3224,-8.1738,0.0727,0.7583,8.2061
15.3486,6.8642,2.5857,-8.7197,0.0790,0.8517,2.4885
15.3675,6.6631,2.6384,-8.6215,0.0730,1.0107,1.6260
15.3859,6.4643,2.3008,-8.6574,0.0547,1.1137,0.8702
15.4052,7.1060,1.9537,-6.6870,0.0513,1.0681,-3.6565
15.4236,6.8953,2.1572,-5.4779,0.0408,0.9129,-1.4733
15.4426,7.2544,1.5826,-4.8123,0.0234,0.6443,1.8855
15.4614,7.0222,1.7621,-4.2258,0.0343,0.3157,5.1145
15.4794,7.9799,2.2913,-4.6663,0.0311,0.0879,4.4046
15.4983,8.2001,1.9968,-5.6743,0.0308,0.0281,3.3817
15.5166,8.0493,2.0470,-6.3997,0.0592,0.0573,2.9542
15.5359,8.2408,1.8531,-6.3686,0.0506,0.0449,1.4427
15.5540,8.0756,2.0159,-6.4093,0.0308,-0.0013,1.4504
15.5720,8.3462,1.9178,-6.6176,0.0118,0.0096,-0.5115
15.5903,7.9224,2.0183,-6.3566,-0.0036,-0.0026,0.2595
15.6084,8.0732,2.1069,-6.1842,-0.0070,-0.0105,1.9389
15.6268,8.1068,1.9752,-6.3111,-0.0219,-0.0591,-0.5802
15.6451,7.9009,2.0590,-6.5673,-0.0373,-0.0802,-0.3969
15.6642,7.8171,2.0973,-6.3901,-0.0426,-0.0623,0.8168
15.6833,7.8027,2.0710,-6.7995,-0.0331,0.0290,0.5191
15.7020,8.3222,1.9752,-6.3446,-0.0140,0.1130,-1.4885
15.7208,8.3199,2.0087,-5.5785,0.0006,0.1432,-3.7252
15.7399,8.1786,1.9992,-5.1427,0.0209,0.0255,-4.8015
15.7588,8.0349,2.1524,-5.7604,-0.0071,-0.1341,-4.4885
15.7775,7.6351,2.2482,-6.5362,-0.0117,-0.1158,-2.1985
15.7962,7.5968,2.3224,-7.4148,-0.0240,-0.0074,-0.1527
15.8150,7.9535,2.1284,-6.7804,-0.0311,0.0751,-0.2137
15.8338,8.0709,2.0973,-5.5282,-0.0352,0.0564,-1.2061
15.8520,7.9871,2.1213,-5.1787,-0.0334,-0.0806,-1.3053
15.8701,7.9535,2.1524,-5.1715,-0.0284,-0.2073,-0.7863
15.8885,7.4891,2.3176,-6.3351,-0.0200,-0.1840,1.1679
15.9060,7.9966,2.0925,-6.8307,0.0465,0.0202,0.9847
15.9250,7.6782,2.2529,-7.2018,0.0301,0.0992,0.8626
15.9432,7.6447,2.2146,-5.9975,-0.0092,0.0065,2.0076
15.9623,8.1092,2.1596,-5.4731,-0.0435,-0.1400,9.0916
15.9808,4.7429,0.1820,-7.4867,-0.2059,-0.2957,30.8779
15.9993,8.9591,2.2362,-2.9975,-0.1059,-0.6255,17.9924
16.0178,7.5489,2.3056,-5.3223,-0.0779,-0.8646,10.4351
16.0365,8.0828,2.8036,-6.1579,-0.0396,-0.9148,1.6260
16.0559,7.8769,3.5985,-13.3213,0.0880,0.2561,-4.6794
16.0744,7.5298,2.0782,-8.9088,0.0566,0.8080,-4.0229
16.0936,6.9192,2.5738,-4.3574,0.0134,0.4384,-1.7481
16.1118,6.0813,2.5570,-6.6295,0.0205,0.4370,6.7328
16.1304,8.1834,1.7406,-5.8849,0.0645,0.5095,3.4656
16.1491,8.7987,1.5467,-5.6767,0.0417,0.3962,-1.1832
16.1678,8.5880,2.0518,-6.0597,0.1157,0.5936,3.0534
16.1868,7.6519,1.7190,-4.6591,0.1861,0.7574,3.5420
16.2048,8.5138,1.7933,-4.4796,0.2442,0.7050,0.0763
16.2237,8.3749,1.5251,-5.0350,0.2831,0.6416,-1.0305
16.2416,9.1866,1.3503,-4.1994,0.2940,0.5176,-7.7328
16.2593,8.4348,1.8435,-4.2114,0.3235,0.4846,-6.6718
16.2774,8.0014,1.8028,-5.9065,0.4044,0.5173,-8.9695
16.2960,8.9711,2.0111,-6.2848,0.4049,0.7054,-10.4504
16.3146,11.1139,2.2338,-6.4596,0.2978,0.8569,-15.9237
16.3339,9.8306,1.4964,-4.8602,0.2097,0.7993,-20.0305
16.3526,8.7747,1.8220,-4.1970,0.2281,0.9414,-17.0763
16.3715,9.4355,1.8292,-4.7190,0.2679,1.2159,-16.3511
16.3903,9.6007,1.4581,-3.4524,0.2979,1.4439,-17.4962
16.4093,10.6518,1.5083,-2.7821,0.2958,1.4316,-23.7557
16.4284,9.9359,2.0279,-2.3080,0.2856,1.4801,-25.8397
16.4512,9.1482,1.9441,-1.2570,0.2738,1.4035,-22.5573
16.4698,8.6072,2.6767,-0.5076,0.1899,1.1638,-14.6412
16.4884,9.3661,2.3511,1.3048,0.0649,0.6738,-12.1298
16.5070,9.6271,2.3224,1.8507,-0.0222,0.2154,-9.2290
16.5262,9.7971,1.9920,1.5395,-0.0598,-0.1168,-7.9313
16.5441,9.9192,2.4253,0.8978,-0.0207,-0.1274,-5.3282
16.5619,9.1578,2.3248,-0.0694,0.0347,0.0102,-0.1908
16.5803,9.4786,2.1668,1.0056,0.0547,-0.0392,2.6794
16.5987,9.6343,1.8866,3.2082,0.0448,-0.4172,4.4733
16.6181,9.9647,1.3958,3.4453,0.0283,-0.9928,5.8168
16.6367,9.9718,1.9585,0.8571,0.0295,-1.3302,1.0229
16.6553,9.2488,2.1308,0.1796,0.1011,-1.4075,-0.1908
16.6739,9.3781,1.3719,-0.6033,0.1787,-1.5667,-0.5115
16.6926,9.6582,1.4485,1.6137,0.1496,-1.8977,-5.1145
16.7114,11.3150,0.9912,-0.8452,0.2172,-1.9094,-22.1298
16.7302,10.8314,1.8387,-3.3686,0.2760,-1.9094,-40.1985
16.7487,7.2042,2.0494,-5.3319,0.2184,-1.9094,-25.4427
16.7677,6.0142,2.1237,-9.2608,0.1990,-1.5802,-19.4122
16.7865,6.0837,1.3743,-7.6112,0.1850,-1.3609,-12.9008
16.8056,6.8857,2.7438,-8.1475,0.1599,-1.3692,-16.4733
16.8244,6.8043,2.3990,-6.0142,0.1411,-1.2718,-16.3130
16.8429,6.3375,2.5402,-8.6479,0.0845,-1.2371,-15.2137
16.8611,5.6503,2.0734,-9.8761,0.0532,-0.9932,-13.2137
16.8789,5.4492,2.4277,-10.2807,0.0624,-0.6551,-10.3435
16.8968,5.3870,2.1955,-9.0357,0.0546,-0.5115,-9.6031
16.9163,5.2888,1.2881,-8.5114,0.0642,-0.4816,-8.4122
16.9347,4.3000,2.7078,-9.5744,0.0512,-0.4307,-3.4046
16.9535,6.1507,1.7693,-7.6638,0.0402,-0.5237,-6.4351
16.9718,3.7661,2.1835,-8.9232,0.0122,-0.5492,3.2977
16.9905,3.8068,2.4804,-10.1706,0.0179,-0.3866,7.9466
17.0087,5.4157,2.0830,-10.0030,-0.0048,-0.2559,3.3893
17.0271,5.0230,2.9233,-9.6055,-0.0244,-0.2086,12.7252
17.0455,4.8123,1.6927,-9.6869,0.0302,-0.1288,27.3130
17.0638,4.7501,2.3990,-9.5984,0.2083,-0.1172,34.0534
17.0826,4.9943,2.1476,-8.5473,0.4461,-0.1521,35.7328
17.1008,6.2201,0.1724,-8.6862,0.7138,-0.2571,23.3130
17.1195,5.3391,2.4349,-8.9543,0.9175,-0.1989,20.2824
17.1377,3.9097,1.1899,-9.8641,0.9216,-0.2299,33.6412
17.1561,3.3902,1.7741,-11.1450,0.8380,-0.0687,44.9542
17.1741,4.8746,-0.1939,-9.5122,0.7503,-0.1939,39.5725
17.1917,4.4987,-0.5315,-9.1602,0.6667,-0.2611,23.9466
17.2096,4.4652,-0.3496,-10.6111,0.6261,-0.0985,15.7176
17.2288,3.6631,-0.4549,-9.5936,0.5094,-0.0646,21.7939
17.2470,3.4596,-0.9242,-8.7269,0.4901,-0.1663,25.7863
17.2659,3.0430,-1.7837,-8.1235,0.4944,-0.2528,21.6565
17.2842,3.7924,-1.5969,-7.3933,0.6388,-0.1903,11.8397
17.3031,3.8571,-1.4724,-7.8147,0.6711,-0.2122,14.4733
17.3221,2.3727,-2.0399,-8.5832,0.5848,-0.2448,28.9695
17.3405,3.2801,-2.2769,-8.1882,0.5344,-0.2288,26.1069
17.3593,4.0989,-2.3056,-8.7436,0.4893,-0.0322,15.6336
17.3776,3.5937,-2.5426,-8.8992,0.3847,0.0528,19.1832
17.3960,3.0023,-2.9066,-9.3853,0.1242,0.1086,29.0153
17.4150,3.7206,-2.6647,-9.4308,-0.1510,0.1840,19.0687
17.4334,4.4987,-2.2625,-9.5337,-0.4048,0.1933,-4.3206
17.4524,3.8475,-2.5833,-9.2296,-0.5972,0.1275,-12.9160
17.4704,3.4788,-2.2218,-8.8873,-0.7248,0.0537,-10.3435
17.4884,3.4022,-1.6759,-8.6790,-0.7714,0.1156,-5.9008
17.5076,4.1994,-0.9385,-9.8330,-0.8360,0.2107,-8.4504
17.5260,4.6902,-0.8619,-9.6343,-0.9920,0.2205,-14.8168
17.5444,4.5179,-0.9792,-9.3661,-1.0237,0.2273,-20.9313
17.5632,4.5394,-0.7302,-8.4443,-0.9330,0.2197,-25.8779
17.5818,4.5657,-0.2107,-7.5729,-0.7784,0.0459,-27.0840
17.6011,5.5450,1.0223,-10.5058,-0.7694,-0.2991,-30.3206
17.6194,4.7764,0.8404,-9.9958,-0.6628,-0.1016,-30.4504
17.6384,4.0941,1.7214,-9.9383,-0.5146,0.0970,-12.6107
17.6568,4.1061,1.9609,-9.4571,-0.3545,-0.0052,-1.9313
17.6757,4.3120,1.8699,-9.7779,-0.1914,-0.0881,3.7176
17.6944,4.0725,1.6951,-10.5536,-0.0317,-0.0886,4.4275
17.7135,3.7254,1.5514,-10.4698,0.1238,-0.0128,8.1145
17.7297,3.7733,1.2019,-8.6694,0.4323,0.0759,12.0153
17.7429,3.9552,1.4126,-9.0716,0.6019,0.0251,19.1679
17.7570,3.3064,0.8116,-9.9072,0.6854,0.0425,28.0153
17.7699,3.8834,0.6512,-10.0317,0.7306,0.0442,30.6031
17.7833,3.7062,0.4429,-8.5305,0.7956,0.0824,33.8092
17.8072,3.2082,0.3639,-7.5992,0.9029,-0.0958,42.9160
17.8213,3.3375,-0.6201,-7.3694,0.9747,-0.2315,39.2824
17.8401,3.4453,-1.3479,-8.4084,0.9182,-0.3106,26.7710
17.8584,3.3567,-1.6807,-9.8545,0.6930,-0.1582,7.3359
17.8773,3.4022,-1.8818,-8.3007,0.3661,-0.1575,-12.2824
17.8959,3.6081,-1.7597,-9.1770,-0.0607,-0.2337,-22.9771
17.9154,3.9097,-1.5155,-9.2823,-0.5355,-0.1682,-29.0382
17.9341,4.2186,-1.2330,-9.5361,-0.9018,-0.0158,-37.9389
17.9523,4.3886,-0.9026,-9.2177,-1.1389,0.0966,-47.3588
17.9710,4.3718,-0.0048,-9.1889,-1.2698,-0.0848,-57.1756
17.9894,5.4061,1.4940,-8.3534,-1.1366,-0.4838,-47.2824
18.0085,4.2186,2.4924,-10.9559,-0.8567,-0.1869,-26.7023
18.0263,3.8475,2.1332,-10.6925,-0.5476,-0.0520,-16.0992
18.0443,3.4860,1.9920,-10.6973,-0.2708,0.0746,-6.9466
18.0629,3.6248,2.5019,-8.9830,-0.0776,0.0241,-0.8092
18.0813,3.4189,1.9321,-9.5505,-0.0315,-0.0051,-8.4809
18.0999,3.7948,1.8866,-10.0700,-0.0803,-0.0537,-26.0229
18.1187,3.0694,1.9249,-10.1466,-0.2063,-0.0958,-35.2672
18.1379,3.5961,1.4748,-10.2161,-0.3581,-0.1203,-47.0000
18.1569,3.3519,1.7478,-10.4100,-0.5203,-0.0478,-53.9542
18.1762,3.8211,2.3870,-9.9144,-0.6593,-0.0431,-56.0687
18.1944,3.6464,3.0646,-9.6869,-0.8013,-0.1787,-54.5420
18.2140,3.1053,3.0358,-9.2368,-0.8146,-0.1167,-50.6031
18.2332,8.1139,0.8763,-19.6133,0.0319,-0.0014,-26.1298
18.2535,2.8467,2.8730,-6.6200,-0.1718,-0.0125,-34.0458
18.2724,3.2298,3.0598,-12.1171,-0.4222,0.0484,-53.8779
18.2923,1.3408,8.2983,-12.2583,-0.0980,-0.0685,-46.3817
18.3113,1.9896,3.2753,-8.3318,-0.2982,0.1963,-34.6412
18.3299,3.3136,3.5961,-10.7308,-0.2555,0.0733,-34.5115
18.3488,2.4804,4.1180,-9.6031,-0.3525,0.0112,-35.4656
18.3668,3.8164,4.2401,-9.9192,-0.4304,0.0469,-41.3359
18.3856,2.6935,4.3862,-9.1913,-0.4545,0.0537,-43.4580
18.4053,2.2098,4.2665,-9.3661,-0.4793,0.1623,-40.7176
18.4247,2.1093,4.3287,-10.2376,-0.5578,0.2619,-41.3664
18.4441,3.0095,3.7948,-7.8769,-0.5664,0.1028,-57.8855
18.4633,2.7031,4.8052,-8.9543,-0.5651,0.1163,-71.3053
18.4826,3.0765,5.2050,-8.1930,-0.5396,0.0633,-70.1603
18.5023,1.9968,5.6719,-8.8777,-0.5736,0.1391,-46.8015
18.5215,1.5874,5.7269,-8.8202,-0.6275,0.1617,-23.2519
18.5402,2.8467,6.4380,-6.9145,-0.6473,0.0150,-25.8779
18.5590,3.3303,6.7684,-7.4124,-0.6619,0.0711,-33.2901
18.5779,2.3918,7.0222,-5.8347,-0.6741,0.1661,-29.9924
18.5965,2.4301,6.0813,-4.7812,-0.6301,0.1564,-26.1069
18.6152,2.2170,5.9831,-6.4476,-0.5687,0.2810,-23.2290
18.6342,2.2218,7.4508,-5.1164,-0.5118,0.2553,-23.7710
18.6525,2.6743,7.5872,-3.2896,-0.4101,0.1270,-33.1908
18.6715,1.3599,8.6335,-5.4779,-0.3698,0.0845,-11.8931
18.6900,1.0319,7.3143,-5.6072,-0.2244,0.2020,3.3511
18.7086,0.6393,7.8673,-3.4237,-0.0741,0.3018,11.3588
18.7275,2.4612,7.8817,-2.3990,0.1200,0.1750,10.5420
18.7458,2.4493,7.5609,-2.4134,0.2798,-0.0135,20.3664
18.7646,1.4629,8.4036,-5.1811,0.4046,0.0617,29.0687
18.7830,1.2977,6.7852,-3.4716,0.5915,0.0649,38.2595
18.8018,0.6656,5.7078,-3.1699,0.7942,0.0140,44.3435
18.8216,0.5004,6.2513,-2.6217,0.9582,-0.0579,49.8473
18.8403,2.6025,6.0861,-4.7118,1.1052,-0.1623,51.7023
18.8594,1.3312,5.4636,-4.1324,1.2162,-0.1592,57.5115
18.8784,3.2417,3.7900,-8.0541,1.2989,-0.2588,52.3282
18.8977,2.7988,4.2976,-5.4708,1.2866,-0.3728,47.4351
18.9167,3.7062,3.5554,-7.2257,1.2088,-0.4568,41.9771
18.9361,2.9832,3.4046,-8.9352,1.1225,-0.5385,40.6794
18.9548,2.7605,2.5546,-10.2376,1.0717,-0.3174,40.2748
18.9730,4.2042,3.7182,-9.9264,0.9724,-0.4678,37.6260
18.9909,5.4899,0.8859,-11.8417,0.9112,-0.9157,28.7863
19.0102,3.2417,2.5570,-14.0157,0.7253,-0.8062,30.4733
19.0290,1.8890,1.7502,-13.6709,0.4235,-0.4371,22.2290
19.0481,2.3846,2.9090,-13.8792,0.2369,-0.2477,8.3130
19.0678,2.2458,2.0590,-13.1059,0.0399,-0.0827,4.1450
19.0866,1.4198,2.7964,-12.8305,-0.1625,0.1432,4.2214
19.1057,1.9800,2.7270,-12.6701,-0.3190,0.3641,0.5267
19.1240,1.6376,2.3798,-11.5736,-0.4297,0.5396,-1.9771
19.1432,2.1691,2.0901,-10.9654,-0.4927,0.6690,-6.3282
19.1617,3.0311,2.3200,-10.1682,-0.5366,0.4996,-6.0076
19.1802,2.7485,3.0095,-9.5122,-0.5618,0.1777,-4.3664
19.1995,2.9664,3.0718,-10.3956,-0.5837,0.0328,-7.5954
19.2178,2.8778,2.9257,-11.8226,-0.6718,0.2317,-12.3053
19.2370,3.5338,3.0885,-10.8481,-0.7354,0.0584,-21.0687
19.2554,3.4716,3.9624,-10.3070,-0.8273,0.1856,-23.0611
19.2739,3.3998,3.6607,-9.7827,-0.8760,0.2016,-23.0763
19.2925,3.2346,4.4005,-8.7364,-0.8866,0.2328,-27.0840
19.3107,3.0909,4.6352,-7.9009,-0.8917,0.2791,-25.4962
19.3291,3.0023,5.0015,-8.2217,-0.8851,0.2835,-27.2443
19.3475,2.3224,5.3846,-7.9775,-0.9045,0.3029,-21.0458
19.3671,2.5259,4.8674,-6.6200,-0.8976,-0.0337,-20.0611
19.3864,2.3367,6.0190,-5.0230,-0.8340,0.1771,-21.1069
19.4053,3.7326,6.1842,-5.2529,-0.7268,0.0653,-25.2366
19.4239,4.3766,6.6224,-4.0941,-0.6112,0.1872,-34.8168
19.4437,4.4388,6.9791,-7.1419,-0.4999,0.2083,-41.6794
19.4622,3.5003,6.4715,-5.3247,-0.3345,0.2707,-28.0534
19.4826,3.0981,6.4069,-1.1372,-0.1632,-0.1019,-19.8321
19.5025,1.5778,7.2209,-3.2705,0.0506,-0.0639,-8.4275
19.5224,1.7310,6.9791,-3.8571,0.2689,0.0382,2.8550
19.5424,1.9632,7.2808,-2.0303,0.4465,-0.0170,10.2214
19.5621,3.0430,6.8354,-2.9185,0.6047,-0.1171,16.1145
19.5815,2.1668,6.9647,-3.4381,0.7556,-0.1432,24.0687
19.5998,1.2881,6.6918,-8.5569,0.8421,-0.1910,28.5038
19.6187,1.8794,5.6144,-4.8578,0.9289,-0.2040,32.8321
19.6373,2.1117,5.4300,-6.6391,1.0519,-0.2271,35.2595
19.6563,2.9066,5.1595,-5.6551,1.0871,-0.3894,38.0305
19.6750,2.4038,4.0797,-8.5856,1.0950,-0.3840,38.9160
19.6945,2.7964,3.7589,-9.8019,1.0766,-0.3423,36.0534
19.7135,1.9920,3.3423,-12.7874,1.0061,-0.0681,38.0305
19.7331,2.9497,3.0119,-7.8889,1.0087,-0.2345,34.1756
19.7532,3.3016,3.6871,-12.0021,0.9608,-0.2159,34.8702
19.7721,4.2186,2.0255,-11.0277,0.9122,-0.6574,34.2901
19.7914,2.5833,2.0207,-14.0947,0.6903,-0.6283,38.7634
19.8120,2.4972,2.0470,-13.2998,0.4570,-0.4052,26.5115
19.8386,2.7461,2.3439,-12.2487,0.2597,-0.1774,0.5878
19.8581,2.5091,1.6017,-14.0085,-0.0066,0.0558,-6.4962
19.8782,2.0327,2.0542,-13.3812,-0.2275,0.3095,-12.0534
19.8974,2.5474,2.4301,-12.4546,-0.4092,0.4627,-16.8550
19.9173,2.6169,2.6743,-11.1498,-0.5206,0.5644,-19.9771
19.9348,2.7701,2.8299,-10.7811,-0.5833,0.5661,-20.8779
19.9605,2.9161,3.0765,-9.1889,-0.5584,0.0340,-15.9771
19.9792,2.7294,2.5857,-11.0588,-0.6292,0.0899,-17.8855
19.9984,3.7182,2.5235,-9.8737,-0.6591,0.0108,-21.6870
20.0171,3.0646,3.4884,-10.7404,-0.7346,0.1378,-25.2595
20.0365,3.3686,3.7445,-10.0556,-0.7870,0.2034,-27.4275
20.0554,3.1723,3.9241,-9.7468,-0.8474,0.2257,-33.0153
20.0765,3.2705,4.1970,-8.2169,-0.8420,0.2748,-36.5420
20.0957,2.6552,5.3582,-7.5609,-0.8301,0.2371,-31.8550
20.1150,2.3679,5.5378,-7.2640,-0.8254,0.2435,-25.7863
20.1344,2.4157,4.9847,-6.3087,-0.7324,0.1823,-26.0916
20.1531,2.9185,5.4372,-7.0126,-0.6769,0.1723,-26.3664
20.1727,3.3806,6.0094,-5.8466,-0.6123,0.1797,-30.1679
20.1932,3.1915,6.7253,-5.2385,-0.5313,0.1600,-31.1069
20.2129,2.7892,6.5434,-4.7740,-0.4110,0.1452,-30.7557
20.2318,2.8204,6.6415,-5.2385,-0.3178,0.1179,-29.5267
20.2510,2.7797,7.1970,-4.1563,-0.2163,0.0258,-27.5420
20.2699,2.0542,7.4053,-3.9002,-0.0829,-0.0359,-21.9313
20.2894,1.5826,7.6160,-4.1420,0.0389,-0.0796,-12.9313
20.3086,1.3288,7.5681,-4.4604,0.1740,-0.0382,-5.6870
20.3296,1.6664,7.0437,-4.2665,0.3033,-0.0652,6.9618
20.3497,1.9489,6.6750,-4.6280,0.4345,-0.1976,16.8855
20.3695,1.4892,6.0406,-3.8355,0.5962,-0.2269,25.6489
20.3884,1.0032,4.8914,-1.5467,0.7671,-0.1918,36.3511
20.4081,2.3367,5.6168,-3.7589,0.9328,-0.1208,37.6947
20.4314,2.5450,6.2393,-5.7581,0.9889,-0.2208,37.7557
20.4502,2.0279,5.0829,-8.2145,1.0016,-0.3706,39.6260
20.4700,1.8244,4.5993,-8.7580,0.9978,-0.2963,42.7176
20.4896,3.3303,3.2202,-8.9711,1.0178,-0.0766,38.6565
20.5104,3.5554,3.3974,-10.3669,0.9444,-0.1273,35.0458
20.5308,3.0861,3.2465,-10.6279,0.8383,-0.3136,33.9695
20.5497,2.2314,3.4165,-12.0931,0.7096,-0.0974,35.0458
20.5693,3.9744,2.8850,-8.9878,0.7134,-0.0982,27.3817
20.5887,3.0909,2.5163,-10.9822,0.6613,-0.1119,25.1374
20.6080,1.9944,2.1572,-11.8824,0.5387,-0.1454,25.5802
20.6276,2.5738,2.1045,-11.8872,0.4116,-0.1781,27.1756
20.6470,3.7541,2.0375,-12.4714,0.2829,-0.1577,18.8015
20.6670,3.8188,1.9561,-12.1865,0.1220,-0.1077,10.2977
20.6871,3.3136,1.8507,-11.7029,-0.0082,0.0217,3.2214
20.7065,4.0199,2.1261,-12.0764,-0.1485,0.0453,-6.4580
20.7263,4.0606,2.1069,-12.2009,-0.2930,0.0184,-15.5191
20.7484,3.0718,2.2170,-11.7148,-0.4195,0.0307,-18.5802
20.7671,2.6097,2.1356,-11.0756,-0.5093,0.0300,-18.6947
20.7884,2.3822,2.3631,-10.7548,-0.5956,0.1091,-19.0687
20.8074,2.6049,3.1699,-9.1913,-0.6203,0.1463,-21.4733
20.8307,2.7581,2.8132,-10.3813,-0.6462,0.1317,-19.6107
20.8489,2.5450,3.2657,-10.2208,-0.7093,-0.0557,-19.1908
20.8681,2.7509,3.9792,-9.2751,-0.7462,0.0143,-20.8473
20.8873,2.9353,4.0199,-9.8857,-0.7890,0.0679,-23.0305
20.9067,2.3200,4.7070,-9.7205,-0.8293,0.2538,-23.9771
20.9254,2.7773,3.9720,-8.2552,-0.7947,0.1967,-25.7023
20.9448,3.0143,4.9129,-8.8705,-0.7818,0.1472,-24.8855
20.9640,2.8156,5.0901,-7.2903,-0.7715,0.1588,-24.9008
20.9867,2.1500,5.7676,-7.3430,-0.7245,0.2499,-20.1145
21.0057,2.0590,5.9879,-7.8051,-0.7243,0.3002,-17.2366
21.0257,2.5163,6.3662,-3.8834,-0.6656,0.2736,-18.7634
21.0459,2.3056,6.7397,-4.9775,-0.6335,0.0834,-17.4504
21.0679,2.8491,6.7900,-5.3127,-0.5767,0.0894,-13.7328
21.0868,1.5682,6.5027,-1.2570,-0.4448,0.2045,-6.4809
21.1068,2.8132,7.0701,-2.4421,-0.3388,0.1881,-2.8626
21.1267,2.6169,6.4548,-3.4429,-0.1500,-0.0250,-1.4962
21.1465,2.3750,6.3542,-4.7453,0.0769,-0.1174,6.0840
21.1629,1.5658,6.9623,-3.9361,0.2692,-0.0234,12.7557
21.1767,1.4868,6.3734,-3.7972,0.4230,-0.0857,21.9924
21.1912,2.5618,6.1699,-3.9480,0.5616,-0.1978,24.2824
21.2055,3.7924,6.5936,-5.2026,0.6644,-0.1368,25.7252
21.2201,2.1093,6.1220,-3.6895,0.7244,-0.1588,26.1298
21.2346,2.4397,6.3566,-7.6183,0.8202,-0.1912,26.2901
21.2495,2.4517,5.4636,-5.3439,0.8542,-0.2625,26.8321
21.2665,2.1165,5.9400,-7.9344,0.8995,-0.3657,25.4885
21.2880,2.4948,4.9392,-6.8666,0.9653,-0.4018,26.8015
21.3073,1.5921,5.0278,-6.8211,1.0983,-0.3101,34.0763
21.3268,2.0231,4.0845,-7.7117,1.1003,-0.4320,40.4656
21.3476,2.2458,4.0223,-8.6335,1.0686,-0.3110,39.1145
21.3664,3.3974,2.2745,-11.2767,0.9862,-0.3288,37.5267
21.3871,1.6664,3.7613,-9.9766,0.8611,-0.2549,39.3969
21.4078,2.7988,2.5235,-11.1330,0.8000,-0.2632,35.8931
21.4314,2.9209,2.4804,-10.6949,0.7106,-0.2331,29.2137
21.4501,3.3710,1.9632,-12.7467,0.5737,-0.0820,23.1679
21.4689,3.0598,1.8411,-12.6270,0.3879,0.0143,19.5191
21.4873,2.9712,1.9154,-12.8449,0.2174,0.0683,14.6412
21.5061,3.2633,2.0111,-11.4730,0.0985,-0.0020,11.5802
21.5248,3.8116,2.2936,-11.5281,-0.0022,-0.0728,4.3893
21.5435,3.1244,2.4445,-12.3637,-0.1630,0.0137,-3.4733
21.5654,3.4069,2.0423,-11.1953,-0.2631,0.0326,-12.2748
21.5841,3.3160,2.1596,-10.9750,-0.3419,0.1776,-19.4046
21.6044,3.1939,2.4373,-10.8338,-0.4171,0.2361,-22.8015
21.6242,2.8467,2.4421,-10.0197,-0.4556,0.0967,-24.0992
21.6439,2.4277,2.3176,-11.4658,-0.5429,0.1202,-23.7328
21.6631,2.4636,2.6600,-11.0875,-0.6341,0.1548,-23.0992
21.6834,2.9904,3.5674,-8.8585,-0.6314,0.0517,-24.3206
21.7040,2.8371,3.5961,-9.9264,-0.6979,0.0045,-26.3588
21.7225,2.3774,3.3040,-10.0963,-0.7455,0.0692,-24.7328
21.7418,2.3272,3.6440,-8.6742,-0.7543,0.0815,-22.3206
21.7611,2.6312,4.5035,-7.7261,-0.7141,0.1171,-23.9695
21.7805,3.2705,4.3407,-8.0110,-0.7103,0.0562,-28.6031
21.7994,2.8587,4.8554,-8.1954,-0.7223,0.0406,-26.9924
21.8186,2.1069,5.5067,-7.1132,-0.7132,0.0656,-22.3282
21.8377,2.1787,5.3941,-7.0390,-0.6204,0.1206,-19.5115
21.8581,2.8395,5.8203,-7.4364,-0.5683,0.1137,-22.8397
21.8786,1.7214,6.5625,-7.1275,-0.5159,0.2734,-12.5420
21.8980,1.6448,6.6990,-6.2920,-0.4796,0.1920,-5.0076
21.9193,1.3072,6.2991,-6.4069,-0.4080,0.2026,0.8931
21.9388,1.9824,6.5769,-3.9911,-0.2424,0.1326,0.7939
21.9578,2.5786,6.7900,-3.7493,-0.1221,0.0429,-1.6336
21.9782,2.2673,6.0980,-4.3287,0.0084,0.0587,6.2061
21.9978,1.7621,6.3063,-4.9201,0.1644,0.1083,14.1374
22.0182,2.7294,6.0190,-3.7781,0.3576,-0.0755,16.1069
22.0366,2.5091,5.1978,-4.7932,0.4947,-0.1900,20.4656
22.0554,1.3791,6.0956,-4.1635,0.6453,-0.1521,24.0992
22.0745,4.0031,5.6934,-3.2801,0.8145,-0.0104,19.0992
22.0935,3.4644,5.0135,-4.5298,0.9102,-0.1256,19.0229
22.1136,2.0686,5.5952,-7.2233,0.9554,-0.2602,21.1374
22.1324,2.7773,5.7150,-8.8729,0.9688,-0.4295,21.5802
22.1516,1.8387,4.1539,-9.5193,0.9076,-0.3510,27.3664
22.1721,1.8316,3.8451,-7.9583,0.9520,-0.0725,31.9160
22.1910,5.5019,2.9832,-10.3406,0.9439,-0.5237,24.5115
22.2116,0.6536,3.5075,-6.2848,0.9946,-0.0643,22.1679
22.2325,2.6695,2.2075,-11.9016,0.8969,-0.1420,24.2366
22.2518,2.7509,1.8651,-11.8082,0.7826,-0.2633,23.4198
22.2717,2.3679,1.7502,-13.7858,0.5726,-0.2979,25.6412
22.2925,2.8060,1.9201,-12.2846,0.3899,-0.3446,22.1298
22.3140,3.1651,2.1668,-12.2942,0.2644,-0.1713,8.7328
22.3340,4.1683,1.5993,-14.0324,0.0047,0.0876,-5.2977
22.3527,3.5482,1.2282,-13.0867,-0.1762,0.0664,-10.6183
22.3719,2.6767,2.0638,-12.4546,-0.3166,0.0789,-15.1527
22.3914,2.9185,2.0590,-12.5576,-0.4757,0.2326,-22.3053
22.4110,3.2417,2.2434,-11.4347,-0.6053,0.2082,-26.3588
22.4301,2.5642,2.3128,-11.1833,-0.6738,0.0519,-24.7786
22.4504,2.2122,2.4660,-10.6973,-0.7811,0.3228,-26.4504
22.4705,2.9233,2.6624,-10.4818,-0.8320,0.3833,-28.0611
22.4903,3.3686,3.0143,-8.7963,-0.7652,-0.1024,-31.1374
22.5091,3.3543,3.6368,-10.8721,-0.8165,-0.2174,-27.8168
22.5297,2.4469,3.9121,-9.6750,-0.8564,0.0201,-31.8550
22.5503,3.0263,3.7326,-9.6630,-0.9235,0.1811,-36.1603
22.5699,2.5163,4.7932,-8.4779,-0.9533,0.2257,-33.5954
22.5893,2.1069,5.1140,-7.8793,-0.9977,0.1622,-29.8397
22.6101,1.7765,5.8490,-7.7692,-0.9916,0.1087,-25.3359
22.6316,1.3719,5.5019,-6.2824,-0.9448,0.1485,-15.1756
22.6497,1.7047,5.8323,-6.5314,-0.8056,0.3977,-12.2977
22.6684,1.7861,5.7988,-5.0829,-0.7325,0.3192,-11.4504
22.6872,2.9736,6.5697,-2.6719,-0.6554,0.2811,-21.8855
22.7065,2.2003,7.7285,-5.4947,-0.6149,0.1457,-20.4351
22.7258,3.1867,7.1635,-4.9704,-0.5536,0.2354,-13.2748
22.7456,2.4349,7.8793,-4.8363,-0.4188,0.1190,-8.8321
22.7648,1.9154,7.1563,-2.9928,-0.2376,0.1269,-7.5038
22.7849,2.7821,6.5050,-0.7709,0.0020,-0.0337,-5.5649
22.8047,1.8579,6.9216,-3.5745,0.2485,-0.1081,1.2137
22.8239,2.7174,6.5577,-1.4174,0.4687,-0.2125,8.7710
22.8446,2.8084,6.5481,-5.7341,0.6662,-0.2387,23.3435
22.8647,1.3024,5.9041,-3.4572,0.8770,-0.2249,32.9618
22.8841,2.0399,6.9599,-4.6256,0.9990,-0.3059,32.2290
22.9039,1.8028,6.4428,-3.9696,1.0555,-0.2755,22.5725
22.9232,1.7095,5.5282,-4.2401,1.1766,-0.2523,19.4046
22.9433,1.6688,5.8179,-9.2129,1.1902,-0.1375,29.2290
22.9635,2.2817,4.0127,-8.8322,1.1540,-0.0494,34.0840
22.9817,2.7629,3.9097,-9.4140,1.0796,-0.0611,39.0229
23.0007,2.3559,4.6591,-8.0278,1.0481,-0.1747,36.0458
23.0199,2.9760,3.7421,-10.4004,1.0398,-0.2479,33.4198
23.0391,2.2266,2.9018,-11.5640,0.9105,-0.0451,34.0305
23.0578,2.9999,1.7693,-11.4419,0.8521,-0.0890,32.6565
23.0771,3.3567,2.9161,-11.4634,0.7394,-0.1487,29.9695
23.0961,3.1005,2.5283,-11.3772,0.6514,-0.0179,25.8092
23.1156,2.8850,1.9872,-12.3517,0.5480,-0.0027,26.9771
23.1356,2.8778,1.6209,-11.3629,0.4050,-0.1118,28.1603
23.1549,2.5546,1.8411,-11.3772,0.3256,-0.1850,28.6565
23.1747,2.7869,1.5945,-11.4275,0.2384,-0.0675,23.9542
23.1935,2.9904,1.7693,-10.6015,0.1695,0.0523,19.6489
23.2131,3.2992,1.5706,-10.2472,0.1466,0.1204,13.3206
23.2357,3.0095,1.3958,-9.9814,0.1465,0.1167,11.8168
23.2566,2.3583,1.4461,-9.3996,0.1480,0.0944,18.1069
23.2769,2.6767,1.4916,-9.1913,0.1815,0.0044,21.1832
23.2959,3.0263,1.8962,-9.4499,0.2028,-0.0457,21.3282
23.3150,3.3639,1.0247,-10.0030,0.1966,0.0473,8.9466
23.3348,4.1779,0.6943,-10.4938,0.1766,0.1778,-1.8550
23.3536,3.9624,0.8356,-9.7827,0.1870,0.0059,-4.9618
23.3735,2.3176,0.9577,-9.8713,0.1638,-0.0217,-0.4046
23.3924,2.9975,0.9529,-8.8753,0.1695,-0.0216,1.0000
23.4137,2.4086,1.3671,-9.7444,0.1679,-0.0166,2.9084
23.4335,3.0550,0.8475,-9.0740,0.1766,0.0126,-1.8779
23.4530,3.3327,0.5435,-10.9750,0.1696,0.0084,-9.1985
23.4727,2.9712,0.5890,-9.8761,0.1653,-0.0019,-12.0076
23.4922,3.3591,0.6560,-8.8921,0.1809,-0.0555,-11.9542
23.5114,3.1149,0.3926,-9.8258,0.1746,0.0038,-12.6870
23.5325,2.7892,0.3328,-10.1921,0.1726,-0.0232,-12.7328
23.5520,3.0694,-0.1197,-9.9886,0.1853,-0.0791,-18.5649
23.5744,2.9233,-0.5219,-9.7899,0.1639,-0.2034,-25.1832
23.5925,7.5561,1.2570,-7.8865,0.1408,-0.3332,-5.9160
23.6121,-2.6001,-8.2648,-12.3708,0.0405,0.1251,-6.6489
23.6314,0.2969,4.5131,-12.7659,0.0424,-0.0062,0.5496
23.6512,2.6193,0.2969,-9.6127,0.0221,0.0027,0.6260
23.6704,2.7270,0.3424,-9.9192,0.0132,-0.0009,0.6565
23.6900,2.7797,0.3160,-9.5433,0.0158,-0.0143,0.8168
23.7091,2.7318,0.3400,-9.5864,0.0295,-0.0151,1.1679
23.7299,2.4134,0.3256,-9.6415,0.0593,-0.0062,3.4885
23.7491,2.6049,0.1676,-9.7252,0.0562,-0.0006,6.2824
23.7679,2.0423,0.0838,-10.7236,0.0870,0.0163,5.7099
23.7901,2.7773,0.1652,-10.4004,0.0510,0.0330,4.1603
23.8089,2.6432,0.2059,-9.8282,0.0506,0.0958,5.5649
23.8285,2.9401,0.1293,-9.1746,0.0732,0.1219,3.6489
23.8497,2.8276,0.2705,-9.2129,0.1179,0.2733,3.7252
23.8722,3.1556,0.1293,-10.5872,0.0090,-0.0086,2.7023
23.8903,3.4069,-0.0359,-8.7460,-0.0098,-0.0167,-0.6336
23.9098,2.9736,0.0407,-9.2344,0.0019,0.0215,-0.0687
23.9290,2.8491,0.2993,-10.1107,-0.0312,0.1127,0.8779
23.9481,3.8331,0.1245,-9.3781,-0.0041,-0.0168,-0.8931
23.9667,3.0239,0.0670,-9.5912,0.0026,-0.0156,-0.5420
23.9863,3.1053,0.1317,-9.5960,-0.0005,-0.0104,-0.2137
24.0052,2.9185,0.1245,-9.6031,0.0004,-0.0125,-0.1450
24.0259,3.0742,0.1245,-9.6582,0.0027,-0.0107,-1.9084
24.0457,3.0598,0.0934,-9.7899,0.0030,-0.0119,0.0458
24.0654,3.0598,0.0599,-9.7444,0.0037,-0.0133,0.0763
24.0848,3.0742,0.1293,-9.7588,0.0029,-0.0115,0.0840
24.1037,3.1436,0.0742,-9.7013,0.0032,-0.0137,0.1832
24.1232,2.9113,0.0742,-9.7636,0.0038,-0.0119,0.1679
24.1434,3.0382,0.1077,-9.7037,0.0037,-0.0132,0.1832
24.1633,3.0837,0.1173,-9.7420,0.0032,-0.0112,0.2061
24.1840,3.0789,0.1149,-9.6965,0.0023,-0.0119,0.2672
24.2022,3.0885,0.0838,-9.7276,0.0031,-0.0124,0.2672
24.2211,3.2154,0.0622,-9.7827,0.0027,-0.0121,0.3359
24.2405,3.1412,0.0910,-9.6941,0.0043,-0.0118,0.1374
24.2599,3.1915,0.1293,-9.7133,0.0030,-0.0113,0.2366
24.2793,3.0454,0.0862,-9.7157,0.0050,-0.0108,0.1221
24.2986,3.0143,0.1245,-9.6582,0.0036,-0.0107,0.2748
24.3181,3.0071,0.0575,-9.6606,0.0034,-0.0120,0.2443
24.3376,3.1173,0.1413,-9.7372,0.0057,-0.0112,0.3053
24.3576,3.1005,0.1269,-9.6941,0.0047,-0.0119,0.1527
24.3771,3.0382,0.0958,-9.6750,0.0036,-0.0132,0.1145
24.3981,3.0622,0.0599,-9.7755,0.0030,-0.0119,0.2061
24.4170,2.9185,0.0790,-9.7468,0.0029,-0.0116,0.3053
24.4368,3.0813,0.1197,-9.7971,0.0041,-0.0115,0.3282
24.4575,3.0694,0.1460,-9.6774,0.0037,-0.0111,0.2901
24.4797,3.2154,0.1221,-9.7109,0.0055,-0.0131,0.1756
24.4978,3.1436,0.0838,-9.7348,0.0033,-0.0118,0.2137
24.5166,3.0670,0.1508,-9.7827,0.0043,-0.0118,0.1527
24.5356,3.0957,0.0910,-9.5792,0.0030,-0.0114,0.3435
24.5555,2.9377,0.0886,-9.5361,0.0035,-0.0136,0.2519
24.5745,3.0694,0.0479,-9.6941,0.0051,-0.0112,0.1985
24.5939,2.9975,0.0718,-9.6630,0.0041,-0.0111,1.9389
24.6087,3.0813,0.0718,-9.7468,0.0038,-0.0111,0.3282
24.6236,3.0718,0.0862,-9.6702,0.0030,-0.0125,0.2061
24.6385,3.1987,0.0886,-9.7492,0.0033,-0.0130,0.3511
24.6529,3.0622,0.0814,-9.6391,0.0017,-0.0129,0.1679
24.6672,3.0406,0.0694,-9.7252,0.0040,-0.0126,0.3511
24.6819,3.0574,0.1101,-9.6606,0.0031,-0.0112,0.2290
24.6968,3.0718,0.1245,-9.7109,0.0041,-0.0117,0.2901
24.7181,3.0742,0.1053,-9.6582,0.0044,-0.0112,0.1679
24.7365,3.0574,0.1197,-9.7420,0.0047,-0.0108,0.2519
24.7593,3.0670,0.1173,-9.6845,0.0038,-0.0122,0.1832
24.7784,3.0909,0.0766,-9.7181,0.0044,-0.0140,0.3130
24.7984,2.9209,0.0431,-9.7803,0.0039,-0.0131,0.2748
24.8179,3.2082,0.0934,-9.6798,0.0039,-0.0113,0.3588
24.8371,3.0789,0.0790,-9.6486,0.0031,-0.0124,1.9466
24.8565,2.9353,0.0886,-9.5313,0.0040,-0.0133,0.1832
24.8755,3.0885,0.0503,-9.8019,0.0043,-0.0124,0.2977
24.8948,3.0167,0.0910,-9.9335,0.0036,-0.0120,0.4198
24.9135,3.1939,0.0814,-9.6558,0.0027,-0.0121,0.1450
24.9324,3.1508,0.0622,-9.6798,0.0034,-0.0116,0.0916
24.9507,3.0095,0.1221,-9.6726,0.0042,-0.0113,0.0687
24.9703,2.9473,0.0766,-9.7803,0.0031,-0.0117,0.1221
24.9895,3.1268,0.1173,-9.6798,0.0027,-0.0115,0.0992
25.0088,3.0765,0.0766,-9.6822,0.0041,-0.0117,0.1603
30.1683,2.9233,0.0886,-9.7468,0.0041,-0.0119,0.2061
30.1985,3.0694,0.1101,-9.6702,0.0037,-0.0132,0.2443
30.2224,3.0478,0.2753,-9.6941,0.0022,-0.0121,0.1756
30.2502,2.9281,0.0503,-9.7061,0.0059,-0.0120,0.1679
30.2699,3.1987,0.1077,-9.6917,0.0044,-0.0119,0.2061
30.2916,2.9257,0.0838,-9.7516,0.0041,-0.0097,1.9313
30.3130,2.9305,0.0599,-9.6845,0.0052,-0.0117,0.1298
30.3362,3.0694,0.1101,-9.7037,0.0039,-0.0118,0.1298
30.3669,3.1651,0.0000,-9.6630,0.0036,-0.0120,0.1145
30.4052,3.0311,0.0838,-9.7516,0.0022,-0.0111,0.1756
30.4423,3.0765,0.1173,-9.7516,0.0046,-0.0123,0.2672
30.4807,2.9616,0.0359,-9.7731,0.0022,-0.0122,0.1985
30.5179,3.2082,0.0359,-9.6726,0.0025,-0.0119,0.1450
30.5548,3.0909,0.0551,-9.7659,0.0033,-0.0119,0.0916
30.5923,3.0694,0.0982,-9.6989,0.0042,-0.0117,0.3893
30.6297,3.0765,0.0407,-9.7420,0.0033,-0.0113,0.1832
30.6665,2.9592,0.0622,-9.6462,0.0038,-0.0123,0.2748
30.7036,3.0718,0.0958,-9.5696,0.0041,-0.0126,0.2519
30.7409,3.0622,0.0742,-9.7659,0.0045,-0.0111,0.0840
30.7786,3.0765,0.1245,-9.7133,0.0039,-0.0119,0.3206
30.8148,3.1125,0.0694,-9.7037,0.0038,-0.0117,0.1603
30.8516,3.1891,0.1149,-9.6893,0.0030,-0.0123,0.2595
30.8884,3.2058,0.0766,-9.6917,0.0045,-0.0097,0.2595
30.9253,3.2058,0.1101,-9.7085,0.0029,-0.0129,0.2977
30.9642,3.0861,0.2634,-9.8857,0.0042,-0.0107,0.2137
31.0054,3.1987,0.0431,-9.5050,0.0030,-0.0117,0.2977
31.0436,3.0574,0.1030,-9.7229,0.0042,-0.0127,0.2214
31.0815,3.0478,0.0622,-9.7588,0.0041,-0.0123,0.2443
31.1176,3.1867,0.0455,-9.7420,0.0036,-0.0119,0.1374
31.1559,3.2106,0.1221,-9.7707,0.0021,-0.0132,0.1603
31.1938,3.1603,0.1508,-9.6678,0.0036,-0.0128,0.1985
31.2321,3.0742,0.1269,-9.7157,0.0043,-0.0126,0.1298
31.2684,3.0765,0.1245,-9.7109,0.0062,-0.0128,0.1527
31.3067,2.9377,0.1221,-9.6606,0.0043,-0.0114,0.2366
31.3463,3.0742,0.2514,-9.7827,0.0040,-0.0128,0.3664
31.3886,3.1149,0.0718,-9.8904,0.0034,-0.0114,0.1985
31.4293,3.1484,0.0862,-9.7013,0.0040,-0.0118,0.1985
31.4703,3.0981,0.1341,-9.6726,0.0043,-0.0102,0.2901
31.5110,3.0526,0.1173,-9.8857,0.0055,-0.0124,0.2519
31.5491,3.0789,0.0814,-9.7468,0.0034,-0.0118,-1.5802
31.5881,3.0335,0.0886,-9.7851,0.0033,-0.0111,0.1374
31.6272,3.0526,0.0239,-9.7229,0.0040,-0.0104,0.3130
31.6666,3.0311,0.0670,-9.6654,0.0047,-0.0118,0.2595
31.7038,3.1077,0.0742,-9.7851,0.0037,-0.0114,0.3130
31.7432,3.1771,0.0024,-9.7133,0.0037,-0.0119,0.0763
31.7844,3.0957,0.1173,-9.7683,0.0035,-0.0115,0.1679
31.8243,2.9377,0.2610,-9.6798,0.0040,-0.0123,0.1221
31.8625,3.1867,0.0622,-9.5984,0.0043,-0.0112,0.1450
31.9006,3.0742,0.0646,-9.5672,0.0040,-0.0118,0.3359
31.9434,3.0454,0.1484,-9.5648,0.0038,-0.0121,0.1069
31.9829,2.9640,0.0503,-9.7588,0.0040,-0.0119,0.1908
32.0222,2.9999,0.1221,-9.7612,0.0044,-0.0117,1.9160
32.0620,2.9568,0.1101,-9.7516,0.0041,-0.0129,0.1603
32.1014,3.1292,0.1006,-9.7300,0.0037,-0.0118,0.3588
32.1379,3.2058,0.0982,-9.9096,0.0045,-0.0111,0.1756
32.1754,3.0957,0.0503,-9.7133,0.0037,-0.0114,0.0534
32.2113,3.0215,0.1077,-9.7229,0.0040,-0.0107,0.2214
32.2496,3.2082,0.1173,-9.7947,0.0038,-0.0124,0.1679
32.2862,3.0670,0.0886,-9.5385,0.0032,-0.0107,0.2290
32.3240,3.1556,0.0431,-9.7564,0.0030,-0.0110,0.1908
32.3601,3.1963,0.0048,-9.6822,0.0058,-0.0111,0.2443
32.3986,3.2130,0.0670,-9.7540,0.0041,-0.0121,0.2519
32.4368,2.9161,0.0910,-9.7181,0.0040,-0.0117,0.2748
32.4753,3.1388,0.0575,-9.7683,0.0048,-0.0109,0.0992
32.5128,2.9425,0.1006,-9.6941,0.0036,-0.0116,0.0687
32.5512,2.9281,0.1077,-9.7205,0.0039,-0.0119,0.3282
32.5894,2.9664,0.1269,-9.7133,0.0044,-0.0125,0.1298
32.6282,3.0909,0.0670,-9.6989,0.0040,-0.0111,0.0992
32.6672,3.1915,0.1197,-9.6893,0.0054,-0.0112,0.1603
32.7062,3.1747,0.1030,-9.7205,0.0042,-0.0133,0.2061
32.7458,3.0813,0.1341,-9.6869,0.0042,-0.0112,0.2061
32.7841,2.9233,0.1269,-9.7588,0.0038,-0.0120,0.3282
32.8229,3.1795,0.0551,-9.6989,0.0042,-0.0126,0.1756
32.8612,2.9137,0.1006,-9.7252,0.0039,-0.0120,0.1298
32.8982,3.2106,0.0790,-9.7659,0.0034,-0.0133,0.1450
32.9373,3.0670,0.1173,-9.7348,0.0044,-0.0101,0.1908
32.9789,3.2082,0.0910,-9.6630,0.0050,-0.0118,-1.6260
33.0172,3.1675,0.0718,-9.7300,0.0021,-0.0125,0.1832
33.0555,3.0263,0.1077,-9.6798,0.0034,-0.0120,0.2366
33.0940,3.1412,0.1173,-9.7252,0.0031,-0.0111,0.2214
33.1298,2.9329,0.1221,-9.5409,0.0031,-0.0101,0.1221
33.1624,3.1699,0.0551,-9.7085,0.0047,-0.0104,0.2519
33.1855,3.0933,0.0958,-9.7348,0.0042,-0.0118,0.2214
33.2089,3.2106,0.1437,-9.6941,0.0056,-0.0117,0.1450
33.2328,3.0622,0.0790,-9.8857,0.0045,-0.0126,0.3053
33.2597,3.1987,0.1006,-9.6917,0.0048,-0.0127,0.1832
33.2866,2.9329,0.0694,-9.6702,0.0034,-0.0107,0.2137
33.3103,3.1316,0.2825,-9.7516,0.0024,-0.0120,0.1374
33.3341,3.0454,0.0670,-9.7516,0.0044,-0.0124,0.2977
33.3585,3.0454,0.0551,-9.7827,0.0041,-0.0112,0.1145
33.3835,3.0526,0.0790,-9.6798,0.0044,-0.0111,0.1221
33.4081,3.0813,0.0814,-9.6606,0.0049,-0.0112,0.2519
33.4327,3.0742,0.1437,-9.6774,0.0038,-0.0109,0.2595
33.4571,3.0574,0.1077,-9.6750,0.0044,-0.0122,0.2214
33.4805,3.0574,0.0694,-9.9072,0.0057,-0.0117,0.0916
33.5059,3.0454,0.0910,-9.6869,0.0039,-0.0130,0.1832
33.5288,2.9377,0.1077,-9.7468,0.0033,-0.0123,0.1527
33.5529,3.1149,0.0718,-9.6941,0.0046,-0.0111,0.1527
33.5765,3.0215,0.0982,-9.6798,0.0050,-0.0124,0.2290
33.6002,2.9329,0.0287,-9.6798,0.0038,-0.0114,0.0992
33.6294,3.1795,0.1413,-9.7229,0.0031,-0.0129,0.0840
33.6538,3.0574,0.0694,-9.7444,0.0034,-0.0114,0.3359
33.6764,3.0813,0.1053,-9.7300,0.0037,-0.0107,0.1603
33.7003,3.0909,0.1149,-9.8066,0.0051,-0.0116,0.4656
33.7263,2.9113,0.0263,-9.6702,0.0048,-0.0126,0.0382
33.7508,3.0957,0.0599,-9.6941,0.0029,-0.0111,0.2443
33.7764,2.9209,0.1317,-9.6941,0.0035,-0.0128,0.1298
33.8012,3.1173,0.1341,-9.6989,0.0038,-0.0103,0.3130
33.8270,2.9305,0.1173,-9.6630,0.0031,-0.0136,0.1908
33.8533,3.2010,0.1006,-9.5098,0.0036,-0.0128,0.1298
33.8785,2.9688,0.1460,-9.7612,0.0036,-0.0114,0.2824
33.9024,3.0358,0.0694,-9.6750,0.0048,-0.0116,0.1374
33.9267,3.2058,0.0862,-9.7133,0.0058,-0.0121,0.2519
33.9511,2.9257,0.1221,-9.7252,0.0052,-0.0126,0.2748
33.9754,3.1987,0.1317,-9.7037,0.0038,-0.0108,0.0840
33.9991,3.1053,0.2705,-9.6917,0.0042,-0.0120,0.1145
34.0227,3.2154,0.1173,-9.7300,0.0038,-0.0110,0.2824
34.0469,3.0430,0.1053,-9.6965,0.0038,-0.0123,0.2519
34.0713,3.1053,0.0862,-9.7492,0.0048,-0.0116,0.2137
34.0955,3.0167,0.0479,-9.6845,0.0042,-0.0117,0.1832
34.1224,3.2106,0.0551,-9.7683,0.0033,-0.0125,0.2366
34.1494,3.1077,0.0599,-9.7037,0.0039,-0.0117,0.3511
34.1759,3.0670,0.0766,-9.7205,0.0029,-0.0125,0.1985
34.2007,3.0071,0.1293,-9.7085,0.0045,-0.0117,0.1832
34.2251,2.9353,0.0670,-9.9359,0.0037,-0.0112,0.2061
34.2493,3.0574,0.0886,-9.7564,0.0057,-0.0129,0.2824
34.2741,3.0981,0.0958,-9.7229,0.0047,-0.0115,0.1298
34.2986,3.0646,0.0215,-9.7420,0.0032,-0.0118,0.4351
34.3230,3.2130,0.1053,-9.9455,0.0031,-0.0119,0.1985
34.3488,2.9305,0.1173,-9.8066,0.0040,-0.0116,0.3053
34.3733,3.0215,0.0694,-9.6127,0.0036,-0.0114,0.1221
34.3981,2.9113,0.1149,-9.7971,0.0027,-0.0123,0.1985
34.4225,2.9353,0.1125,-9.7659,0.0030,-0.0115,0.3359
34.4464,3.0957,0.0886,-9.7995,0.0035,-0.0111,0.2672
34.4703,3.0263,0.0096,-9.8186,0.0033,-0.0125,0.1832
34.4943,3.0622,0.0862,-9.6798,0.0041,-0.0135,0.2595
34.5185,3.1867,0.0599,-9.6678,0.0029,-0.0121,0.1756
34.5429,2.9377,0.0862,-9.7995,0.0030,-0.0111,0.2519
34.5680,3.0598,0.1006,-9.7779,0.0043,-0.0128,0.1221
34.5937,3.0885,0.2155,-9.6630,0.0030,-0.0115,0.2824
34.6192,3.1963,0.1221,-9.7396,0.0037,-0.0115,0.1145
34.6462,3.1149,0.1053,-9.7779,0.0038,-0.0129,0.1985
34.6694,2.9185,0.1245,-9.8043,0.0045,-0.0127,0.1985
34.6946,3.1029,0.0790,-9.7636,0.0033,-0.0118,0.1908
34.7198,3.2034,0.1149,-9.7659,0.0049,-0.0119,0.1908
34.7445,3.1532,0.1341,-9.7803,0.0040,-0.0118,0.1450
34.7700,2.9808,0.1413,-9.7468,0.0035,-0.0122,0.1832
34.7948,3.0742,0.1006,-9.6678,0.0033,-0.0122,0.1221
34.8200,3.1149,0.1173,-9.6558,0.0038,-0.0112,0.2061
34.8456,3.2106,0.0814,-9.7013,0.0034,-0.0125,0.2901
34.8704,2.9664,0.0431,-9.8258,0.0045,-0.0110,0.1450
34.8937,3.0430,0.0431,-9.7276,0.0049,-0.0124,0.2977
34.9180,3.2010,0.1101,-9.7157,0.0037,-0.0115,0.1908
34.9424,3.1173,0.1317,-9.7085,0.0033,-0.0144,0.2443
34.9656,3.1795,0.0622,-9.7252,0.0039,-0.0133,0.1298
34.9902,3.2082,0.1293,-9.5217,0.0059,-0.0103,0.3435
35.0136,3.0287,0.1221,-9.8066,0.0049,-0.0107,0.1908
35.0376,3.0646,0.1413,-9.7372,0.0052,-0.0132,0.2443
35.0620,3.0718,0.0622,-9.6965,0.0046,-0.0121,0.2748
35.0861,3.0813,0.0718,-9.5864,0.0041,-0.0115,0.1679
35.1126,3.0526,0.1173,-9.7085,0.0038,-0.0128,0.1603
35.1373,3.1125,0.0742,-9.7995,0.0058,-0.0122,0.2443
35.1616,3.0550,0.0910,-9.6750,0.0037,-0.0105,0.1374
35.1856,3.0933,0.0575,-9.6798,0.0038,-0.0119,0.1603
35.2090,3.0909,0.0886,-9.7995,0.0039,-0.0122,0.3359
35.2326,3.1939,0.0766,-9.7468,0.0041,-0.0115,0.3206
35.2565,3.2034,0.1245,-9.6822,0.0041,-0.0129,0.2595
35.2818,3.0502,0.0742,-9.6750,0.0048,-0.0122,0.1069
35.3066,3.0454,0.0622,-9.7588,0.0040,-0.0112,0.3817
35.3313,3.1196,0.0479,-9.6965,0.0043,-0.0118,0.2595
35.3565,3.0622,0.0982,-9.7779,0.0041,-0.0123,0.3435
35.3803,3.1915,0.0694,-9.6654,0.0048,-0.0116,0.2366
35.4048,3.2010,0.0455,-9.6750,0.0031,-0.0109,0.1145
35.4356,3.1364,0.1269,-9.6654,0.0033,-0.0103,0.1450
35.4626,2.9281,0.1269,-9.7348,0.0024,-0.0132,0.1832
35.4880,3.0789,0.0766,-9.7157,0.0046,-0.0114,0.2748
35.5116,3.1101,0.0646,-9.7731,0.0030,-0.0121,0.0992
35.5357,3.2154,0.1006,-9.7923,0.0033,-0.0126,0.4046
35.5617,3.0718,0.1053,-9.6678,0.0040,-0.0129,0.1450
35.5871,3.0335,0.1030,-9.6702,0.0029,-0.0109,0.3206
35.6114,3.1747,0.1006,-9.6750,0.0034,-0.0135,0.1679
35.6371,2.9736,0.1341,-9.6989,0.0052,-0.0133,0.1679
35.6621,3.0742,0.0910,-9.6558,0.0041,-0.0118,0.2824
35.6866,3.0694,0.1413,-9.7755,0.0037,-0.0111,0.2137
35.7182,3.0406,0.0670,-9.6726,0.0038,-0.0125,0.2824
35.7572,3.1388,0.1293,-9.7971,0.0041,-0.0112,0.2290
35.7956,3.2058,0.0958,-9.6869,0.0038,-0.0120,0.1985
35.8346,3.0933,0.0910,-9.8066,0.0043,-0.0122,0.3206
35.8719,3.1795,0.1365,-9.7827,0.0035,-0.0115,0.1908
35.9111,2.9209,0.0742,-9.7205,0.0026,-0.0101,0.1756
35.9494,3.2154,0.0455,-9.7683,0.0034,-0.0130,0.1908
35.9881,3.0718,0.0958,-9.7109,0.0036,-0.0109,0.3664
36.0261,2.9688,0.1484,-9.6726,0.0037,-0.0100,0.1145
36.0623,3.2130,0.1437,-9.8043,0.0051,-0.0115,0.1603
36.1010,2.9329,0.1197,-9.7803,0.0026,-0.0119,0.2290
36.1376,2.9928,0.0790,-9.6630,0.0040,-0.0117,0.1374
36.1767,3.0861,0.0958,-9.7061,0.0046,-0.0127,0.3969
36.2232,3.0885,0.0024,-9.7875,0.0040,-0.0126,0.0992
36.2616,3.1627,0.0910,-9.6558,0.0044,-0.0115,0.2061
36.2990,2.9353,0.0670,-9.6845,0.0039,-0.0105,0.2290
36.3360,3.1005,0.1269,-9.7588,0.0029,-0.0115,0.1069
36.3738,2.9257,0.0622,-9.6822,0.0041,-0.0113,0.1985
36.4112,3.2034,0.0694,-9.6582,0.0034,-0.0122,0.2366
36.4514,2.9521,0.1413,-9.6822,0.0036,-0.0127,0.2290
36.4889,3.0550,0.0862,-9.7372,0.0045,-0.0112,0.1069
36.5277,2.9281,0.1077,-9.6726,0.0043,-0.0123,0.2366
36.5646,3.1603,0.1341,-9.6822,0.0038,-0.0125,0.3435
36.6027,3.1580,0.0958,-9.7851,0.0045,-0.0113,0.1679
36.6410,3.0526,0.1197,-9.5600,0.0044,-0.0111,0.1908
36.6799,3.0478,0.1077,-9.7683,0.0040,-0.0123,0.2443
36.7192,2.9257,0.0551,-9.7659,0.0035,-0.0124,0.2443
36.7616,2.9497,0.0862,-9.6917,0.0047,-0.0123,0.3053
36.7979,3.1915,0.0790,-9.6774,0.0044,-0.0125,1.9160
36.8348,3.0742,0.1389,-9.7157,0.0022,-0.0118,0.1603
36.8717,2.9161,0.1293,-9.7205,0.0041,-0.0124,0.2901
36.9086,3.0765,0.0790,-9.5720,0.0032,-0.0135,0.1603
36.9469,3.2106,0.1030,-9.7181,0.0044,-0.0124,0.1221
36.9857,3.0215,0.0718,-9.7564,0.0048,-0.0111,0.2595
37.0222,2.9784,0.1030,-9.7348,0.0031,-0.0117,0.3130
37.0589,2.9329,0.1197,-9.6199,0.0031,-0.0121,0.1985
37.0956,3.1053,0.0838,-9.6630,0.0042,-0.0125,0.2748
37.1324,3.0143,0.0982,-9.7779,0.0033,-0.0119,0.0916
37.1690,3.0598,0.0622,-9.8019,0.0048,-0.0124,0.3130
37.2056,3.0646,0.0838,-9.7396,0.0037,-0.0125,0.2366
37.2423,2.9736,0.2538,-9.5936,0.0032,-0.0110,0.2672
37.2791,3.0789,0.1006,-9.7109,0.0047,-0.0118,0.1374
37.3157,3.0502,0.1053,-9.7061,0.0031,-0.0110,0.2061
37.3523,3.0933,0.0670,-9.7037,0.0031,-0.0135,0.1908
37.3891,3.1963,0.0718,-9.5984,0.0041,-0.0121,0.1298
37.4257,3.2130,0.2322,-9.6989,0.0046,-0.0128,0.1832
37.4625,2.9568,0.1317,-9.5481,0.0036,-0.0137,0.2137
37.4995,3.0885,0.1006,-9.7013,0.0036,-0.0114,0.3435
37.5364,3.1963,0.0934,-9.6917,0.0036,-0.0129,0.1756
37.5733,3.0789,0.0742,-9.5217,0.0033,-0.0129,0.1985
37.6102,3.0215,0.0670,-9.7109,0.0034,-0.0109,0.0916
37.6578,3.2130,0.0982,-9.7348,0.0029,-0.0115,0.2595
37.6995,3.0742,0.1173,-9.7947,0.0039,-0.0112,0.0534
37.7386,3.1867,0.0934,-9.7468,0.0037,-0.0124,0.0611
37.7770,2.9425,0.1867,-9.7659,0.0035,-0.0122,0.2748
37.8146,3.0646,0.0072,-9.7564,0.0027,-0.0122,0.1679
37.8506,3.0813,0.2586,-9.7181,0.0046,-0.0101,0.1221
37.8879,2.9353,0.1149,-9.6654,0.0039,-0.0101,0.1527
37.9238,3.0335,0.0886,-9.7755,0.0037,-0.0105,0.2595
37.9611,3.0694,0.0790,-9.6630,0.0038,-0.0124,0.2366
37.9970,3.0909,0.0838,-9.7420,0.0029,-0.0128,0.1450
38.0344,3.1603,0.1173,-9.7276,0.0041,-0.0114,0.2519
38.0704,3.1843,0.0575,-9.7827,0.0038,-0.0117,0.0611
38.1076,2.9281,0.0599,-9.8019,0.0041,-0.0117,0.2214
38.1434,2.9497,0.0646,-9.7013,0.0037,-0.0106,0.3053
38.1807,3.0598,0.0934,-9.7971,0.0037,-0.0126,0.2595
38.2186,3.2130,0.0646,-9.7181,0.0052,-0.0110,0.3664
38.2550,3.2082,0.0718,-9.8043,0.0034,-0.0115,0.2672
38.2925,2.9497,0.0694,-9.6822,0.0042,-0.0103,0.2672
38.3279,3.2058,0.0622,-9.7731,0.0031,-0.0113,0.1985
38.3505,3.2034,0.0958,-9.6965,0.0030,-0.0121,0.2748
38.3752,2.9856,0.1077,-9.7013,0.0044,-0.0119,0.2977
38.3982,3.0957,0.1293,-9.6965,0.0039,-0.0099,0.1069
38.4205,3.0646,0.1149,-9.6869,0.0036,-0.0138,0.2290
38.4435,3.0909,0.1245,-9.7540,0.0039,-0.0118,0.2137
38.4657,2.9161,0.1484,-9.7037,0.0045,-0.0108,0.2061
38.4891,3.0837,0.0982,-9.7492,0.0036,-0.0119,0.2366
38.5125,2.9521,0.1006,-9.7396,0.0036,-0.0110,0.1527
38.5364,2.9425,0.2969,-9.7133,0.0031,-0.0127,0.1908
38.5595,3.0694,0.0862,-9.6558,0.0040,-0.0130,0.0763
38.5834,3.0574,0.2466,-9.5960,0.0041,-0.0112,0.1908
38.6076,3.0861,0.1053,-9.6606,0.0043,-0.0135,0.1450
38.6313,3.0598,0.1437,-9.7181,0.0036,-0.0125,0.2061
38.6544,3.1580,0.1269,-9.6295,0.0034,-0.0118,0.2061
38.6782,3.1101,0.0646,-9.7995,0.0024,-0.0118,0.0763
38.7015,3.0239,0.1006,-9.7827,0.0043,-0.0126,0.3053
38.7253,2.9233,0.1508,-9.7612,0.0024,-0.0115,0.0992
38.7484,3.2058,0.0718,-9.5744,0.0049,-0.0117,0.2977
38.7723,2.9209,0.1413,-9.7300,0.0037,-0.0116,0.2366
38.7955,2.9185,0.0551,-9.7516,0.0048,-0.0133,0.2366
38.8247,3.0406,0.0479,-9.7109,0.0021,-0.0115,0.2824
38.8486,3.0909,0.0120,-9.6606,0.0044,-0.0117,0.1298
38.8716,3.2010,0.0718,-9.5385,0.0018,-0.0128,0.1756
38.8954,3.0765,0.0886,-9.6750,0.0027,-0.0111,0.3206
38.9189,2.9113,0.0551,-9.6606,0.0052,-0.0131,0.1221
38.9424,3.0813,0.1556,-9.8019,0.0046,-0.0118,0.0992
38.9658,3.1101,0.1197,-9.7827,0.0039,-0.0110,0.3053
38.9893,3.0694,0.0599,-9.7085,0.0036,-0.0129,0.2824
39.0128,2.9137,0.0814,-9.9503,0.0056,-0.0136,0.1679
39.0362,3.0119,0.0958,-9.7420,0.0050,-0.0133,0.2214
39.0597,3.1723,0.1030,-9.7229,0.0057,-0.0130,0.1374
39.0832,3.0981,0.0910,-9.6822,0.0030,-0.0111,0.0687
39.1066,2.9161,0.0814,-9.6678,0.0041,-0.0108,0.2366
39.1302,3.0454,0.1269,-9.7133,0.0041,-0.0124,0.1679
39.1536,3.0861,0.0311,-9.8066,0.0030,-0.0129,0.2214
39.1771,3.0885,0.0670,-9.6893,0.0046,-0.0117,0.1679
39.2006,3.1364,0.1125,-9.7827,0.0050,-0.0122,0.2137
39.2242,3.2058,0.3017,-9.7516,0.0038,-0.0132,0.1603
39.2485,3.0813,0.0886,-9.7037,0.0041,-0.0110,0.2290
39.2722,3.0742,0.0670,-9.7037,0.0042,-0.0114,0.2595
39.2955,2.9568,0.0790,-9.7827,0.0040,-0.0114,0.1527
39.3189,3.0861,0.1293,-9.7923,0.0043,-0.0114,0.1985
39.3435,3.2082,0.1077,-9.7372,0.0041,-0.0111,0.1679
39.3700,3.0813,0.1365,-9.7683,0.0041,-0.0131,0.1145
39.3963,3.0694,0.1484,-9.6582,0.0043,-0.0103,1.9389
39.4203,3.0670,0.1245,-9.9479,0.0031,-0.0098,0.1985
39.4457,2.9281,0.1101,-9.7995,0.0033,-0.0112,0.1374
39.4696,3.2154,0.0599,-9.6989,0.0032,-0.0127,0.4275
39.5035,3.0526,0.0886,-9.7683,0.0038,-0.0111,0.0534
39.5272,3.0909,0.1030,-9.7636,0.0037,-0.0116,0.1832
39.5507,3.0358,0.0383,-9.6606,0.0020,-0.0112,0.1756
39.5741,3.1627,0.0479,-9.7612,0.0041,-0.0128,0.2366
39.5973,3.1292,0.0790,-9.7492,0.0046,-0.0108,0.1679
39.6203,3.0885,0.1269,-9.8713,0.0032,-0.0131,0.1985
39.6427,2.9568,0.1006,-9.7109,0.0042,-0.0124,0.2595
39.6651,2.9161,0.0742,-9.6893,0.0035,-0.0122,0.2748
39.6875,3.0335,0.0886,-9.7612,0.0051,-0.0112,0.1985
39.7100,3.0670,0.1269,-9.7348,0.0033,-0.0128,0.2366
39.7326,3.1651,0.0670,-9.7348,0.0041,-0.0119,0.1832
39.7557,2.9209,0.0694,-9.7348,0.0050,-0.0139,0.2519
39.7789,3.1005,0.1149,-9.7348,0.0041,-0.0123,0.1603
39.8018,3.0837,0.1077,-9.6702,0.0031,-0.0125,0.3053
39.8243,3.0526,0.0670,-9.7468,0.0038,-0.0128,0.1756
39.8469,3.0311,0.0599,-9.7372,0.0041,-0.0109,0.1527
39.8694,2.9521,0.0694,-9.7707,0.0035,-0.0117,0.3435
39.8920,3.1627,0.0862,-9.7061,0.0048,-0.0126,0.0840
39.9178,3.0454,0.0886,-9.7037,0.0051,-0.0132,0.1679
39.9404,3.0909,0.0934,-9.7540,0.0033,-0.0128,0.2443
39.9634,3.1891,0.1030,-9.7205,0.0039,-0.0117,0.1603
39.9860,3.1939,0.1508,-9.6989,0.0052,-0.0112,0.1679
40.0096,2.9568,0.1101,-9.7564,0.0047,-0.0126,0.2519
40.0337,3.0837,0.0311,-9.6654,0.0033,-0.0104,0.1985
40.0700,3.0861,0.0838,-9.7157,0.0041,-0.0110,0.1603
40.1084,3.1987,0.0622,-9.7492,0.0054,-0.0124,0.2977
40.1490,3.0765,0.0479,-9.6893,0.0036,-0.0121,0.1908
40.1873,3.0957,0.0144,-9.7588,0.0042,-0.0105,0.0687
40.2304,3.1149,0.1125,-9.7109,0.0037,-0.0121,0.3206
40.2679,3.0622,0.1245,-9.7300,0.0047,-0.0110,0.2061
40.3057,2.9161,0.1125,-9.7252,0.0048,-0.0121,0.1527
40.3439,3.0718,0.0814,-9.7636,0.0024,-0.0122,0.2061
40.3818,3.1867,0.0096,-9.7636,0.0040,-0.0121,0.2519
40.4202,3.1891,0.0982,-9.6678,0.0043,-0.0132,0.2748
40.4579,3.0885,0.0479,-9.6702,0.0029,-0.0125,0.2901
40.4969,2.9377,0.1006,-9.6223,0.0035,-0.0122,0.2366
40.5350,3.0215,0.0479,-9.6989,0.0045,-0.0116,0.0916
40.5722,2.9544,0.0814,-9.6702,0.0040,-0.0118,0.2519
40.6113,3.1819,0.1006,-9.7516,0.0031,-0.0126,0.1679
40.6484,3.0789,0.0862,-9.7013,0.0031,-0.0127,0.2366
40.6864,3.2130,0.0790,-9.7947,0.0037,-0.0131,0.3282
40.7235,3.0430,0.0670,-9.7013,0.0036,-0.0116,0.1374
40.7610,3.0981,0.1101,-9.8043,0.0036,-0.0110,0.0611
40.7976,3.2154,0.1365,-9.6558,0.0050,-0.0126,0.1298
40.8348,3.1340,0.0958,-9.6678,0.0030,-0.0128,0.3282
40.8739,3.0909,0.1437,-9.7731,0.0047,-0.0139,0.2137
40.9151,2.9880,0.0575,-9.6582,0.0055,-0.0114,0.2443
40.9535,3.0909,0.0192,-9.7276,0.0034,-0.0120,0.1756
40.9917,2.9329,0.0886,-9.6893,0.0027,-0.0115,0.1298
